sn	probe	stand	cond	block_c	trial_c	key_press	Desired	correct	rt	ses	lang	dKey
1887_4026	1	5	CH1_CHIN	1	1	68	68	YES	1326	2	chinese	low
1887_4026	2	5	CH1_CHIN	1	2	68	68	YES	526	2	chinese	low
1887_4026	6	5	CH1_CHIN	1	3	68	75	NO	864	2	chinese	low
1887_4026	3	5	CH1_CHIN	1	4	68	68	YES	768	2	chinese	low
1887_4026	7	5	CH1_CHIN	1	5	75	75	YES	528	2	chinese	low
1887_4026	4	5	CH1_CHIN	1	6	68	68	YES	680	2	chinese	low
1887_4026	8	5	CH1_CHIN	1	7	75	75	YES	513	2	chinese	low
1887_4026	9	5	CH1_CHIN	1	8	75	75	YES	593	2	chinese	low
1887_4026	6	5	CH1_CHIN	2	1	75	75	YES	558	2	chinese	low
1887_4026	7	5	CH1_CHIN	2	2	75	75	YES	457	2	chinese	low
1887_4026	1	5	CH1_CHIN	2	3	68	68	YES	568	2	chinese	low
1887_4026	8	5	CH1_CHIN	2	4	75	75	YES	432	2	chinese	low
1887_4026	1	5	CH1_CHIN	2	5	68	68	YES	520	2	chinese	low
1887_4026	3	5	CH1_CHIN	2	6	68	68	YES	752	2	chinese	low
1887_4026	2	5	CH1_CHIN	2	7	68	68	YES	536	2	chinese	low
1887_4026	9	5	CH1_CHIN	2	8	75	75	YES	456	2	chinese	low
1887_4026	1	5	CH1_CHIN	2	9	68	68	YES	408	2	chinese	low
1887_4026	4	5	CH1_CHIN	2	10	68	68	YES	609	2	chinese	low
1887_4026	9	5	CH1_CHIN	2	11	75	75	YES	464	2	chinese	low
1887_4026	3	5	CH1_CHIN	2	12	68	68	YES	458	2	chinese	low
1887_4026	1	5	CH1_CHIN	2	13	68	68	YES	544	2	chinese	low
1887_4026	2	5	CH1_CHIN	2	14	68	68	YES	472	2	chinese	low
1887_4026	7	5	CH1_CHIN	2	15	75	75	YES	504	2	chinese	low
1887_4026	2	5	CH1_CHIN	2	16	68	68	YES	424	2	chinese	low
1887_4026	7	5	CH1_CHIN	2	17	75	75	YES	377	2	chinese	low
1887_4026	6	5	CH1_CHIN	2	18	75	75	YES	504	2	chinese	low
1887_4026	3	5	CH1_CHIN	2	19	68	68	YES	792	2	chinese	low
1887_4026	7	5	CH1_CHIN	2	20	75	75	YES	448	2	chinese	low
1887_4026	2	5	CH1_CHIN	2	21	68	68	YES	544	2	chinese	low
1887_4026	7	5	CH1_CHIN	2	22	75	75	YES	465	2	chinese	low
1887_4026	7	5	CH1_CHIN	2	23	75	75	YES	719	2	chinese	low
1887_4026	7	5	CH1_CHIN	2	24	75	75	YES	516	2	chinese	low
1887_4026	1	5	CH1_CHIN	2	25	68	68	YES	400	2	chinese	low
1887_4026	7	5	CH1_CHIN	2	26	75	75	YES	472	2	chinese	low
1887_4026	1	5	CH1_CHIN	2	27	68	68	YES	448	2	chinese	low
1887_4026	4	5	CH1_CHIN	2	28	68	68	YES	608	2	chinese	low
1887_4026	3	5	CH1_CHIN	2	29	68	68	YES	626	2	chinese	low
1887_4026	2	5	CH1_CHIN	2	30	68	68	YES	536	2	chinese	low
1887_4026	9	5	CH1_CHIN	2	31	75	75	YES	577	2	chinese	low
1887_4026	3	5	CH1_CHIN	2	32	68	68	YES	520	2	chinese	low
1887_4026	3	5	CH1_CHIN	2	33	68	68	YES	416	2	chinese	low
1887_4026	2	5	CH1_CHIN	2	34	68	68	YES	488	2	chinese	low
1887_4026	4	5	CH1_CHIN	2	35	75	68	NO	400	2	chinese	low
1887_4026	1	5	CH1_CHIN	2	36	68	68	YES	536	2	chinese	low
1887_4026	2	5	CH1_CHIN	2	37	68	68	YES	384	2	chinese	low
1887_4026	2	5	CH1_CHIN	2	38	68	68	YES	416	2	chinese	low
1887_4026	8	5	CH1_CHIN	2	39	75	75	YES	480	2	chinese	low
1887_4026	6	5	CH1_CHIN	2	40	75	75	YES	583	2	chinese	low
1887_4026	4	5	CH1_CHIN	2	41	68	68	YES	538	2	chinese	low
1887_4026	6	5	CH1_CHIN	2	42	75	75	YES	433	2	chinese	low
1887_4026	7	5	CH1_CHIN	2	43	75	75	YES	529	2	chinese	low
1887_4026	9	5	CH1_CHIN	2	44	75	75	YES	495	2	chinese	low
1887_4026	9	5	CH1_CHIN	2	45	75	75	YES	432	2	chinese	low
1887_4026	1	5	CH1_CHIN	2	46	68	68	YES	535	2	chinese	low
1887_4026	3	5	CH1_CHIN	2	47	68	68	YES	520	2	chinese	low
1887_4026	8	5	CH1_CHIN	2	48	75	75	YES	480	2	chinese	low
1887_4026	6	5	CH1_CHIN	2	49	75	75	YES	584	2	chinese	low
1887_4026	6	5	CH1_CHIN	2	50	75	75	YES	424	2	chinese	low
1887_4026	3	5	CH1_CHIN	2	51	68	68	YES	728	2	chinese	low
1887_4026	7	5	CH1_CHIN	2	52	75	75	YES	417	2	chinese	low
1887_4026	9	5	CH1_CHIN	2	53	75	75	YES	425	2	chinese	low
1887_4026	6	5	CH1_CHIN	2	54	75	75	YES	488	2	chinese	low
1887_4026	4	5	CH1_CHIN	2	55	68	68	YES	568	2	chinese	low
1887_4026	8	5	CH1_CHIN	2	56	75	75	YES	441	2	chinese	low
1887_4026	2	5	CH1_CHIN	2	57	68	68	YES	417	2	chinese	low
1887_4026	8	5	CH1_CHIN	2	58	75	75	YES	384	2	chinese	low
1887_4026	2	5	CH1_CHIN	2	59	68	68	YES	480	2	chinese	low
1887_4026	1	5	CH1_CHIN	2	60	68	68	YES	624	2	chinese	low
1887_4026	2	5	CH1_CHIN	2	61	68	68	YES	584	2	chinese	low
1887_4026	7	5	CH1_CHIN	2	62	75	75	YES	408	2	chinese	low
1887_4026	2	5	CH1_CHIN	2	63	68	68	YES	488	2	chinese	low
1887_4026	8	5	CH1_CHIN	2	64	75	75	YES	425	2	chinese	low
1887_4026	9	5	CH1_CHIN	2	65	75	75	YES	431	2	chinese	low
1887_4026	7	5	CH1_CHIN	2	66	68	75	NO	392	2	chinese	low
1887_4026	1	5	CH1_CHIN	2	67	68	68	YES	512	2	chinese	low
1887_4026	3	5	CH1_CHIN	2	68	68	68	YES	416	2	chinese	low
1887_4026	2	5	CH1_CHIN	2	69	68	68	YES	425	2	chinese	low
1887_4026	7	5	CH1_CHIN	2	70	75	75	YES	487	2	chinese	low
1887_4026	9	5	CH1_CHIN	2	71	75	75	YES	465	2	chinese	low
1887_4026	9	5	CH1_CHIN	2	72	75	75	YES	415	2	chinese	low
1887_4026	9	5	CH1_CHIN	2	73	75	75	YES	449	2	chinese	low
1887_4026	7	5	CH1_CHIN	2	74	75	75	YES	504	2	chinese	low
1887_4026	2	5	CH1_CHIN	2	75	68	68	YES	496	2	chinese	low
1887_4026	4	5	CH1_CHIN	2	76	68	68	YES	600	2	chinese	low
1887_4026	1	5	CH1_CHIN	2	77	68	68	YES	535	2	chinese	low
1887_4026	6	5	CH1_CHIN	2	78	75	75	YES	546	2	chinese	low
1887_4026	1	5	CH1_CHIN	2	79	68	68	YES	430	2	chinese	low
1887_4026	4	5	CH1_CHIN	2	80	68	68	YES	592	2	chinese	low
1887_4026	3	5	CH1_CHIN	2	81	68	68	YES	416	2	chinese	low
1887_4026	3	5	CH1_CHIN	2	82	68	68	YES	416	2	chinese	low
1887_4026	1	5	CH1_CHIN	2	83	68	68	YES	456	2	chinese	low
1887_4026	7	5	CH1_CHIN	2	84	75	75	YES	623	2	chinese	low
1887_4026	9	5	CH1_CHIN	2	85	75	75	YES	530	2	chinese	low
1887_4026	8	5	CH1_CHIN	2	86	75	75	YES	480	2	chinese	low
1887_4026	4	5	CH1_CHIN	2	87	68	68	YES	601	2	chinese	low
1887_4026	1	5	CH1_CHIN	2	88	68	68	YES	561	2	chinese	low
1887_4026	3	5	CH1_CHIN	2	89	68	68	YES	529	2	chinese	low
1887_4026	4	5	CH1_CHIN	2	90	68	68	YES	873	2	chinese	low
1887_4026	6	5	CH1_CHIN	2	91	75	75	YES	481	2	chinese	low
1887_4026	3	5	CH1_CHIN	2	92	68	68	YES	432	2	chinese	low
1887_4026	6	5	CH1_CHIN	2	93	75	75	YES	392	2	chinese	low
1887_4026	3	5	CH1_CHIN	2	94	68	68	YES	511	2	chinese	low
1887_4026	9	5	CH1_CHIN	2	95	75	75	YES	439	2	chinese	low
1887_4026	3	5	CH1_CHIN	2	96	68	68	YES	655	2	chinese	low
1887_4026	2	5	CH1_CHIN	2	97	68	68	YES	479	2	chinese	low
1887_4026	9	5	CH1_CHIN	2	98	75	75	YES	449	2	chinese	low
1887_4026	7	5	CH1_CHIN	2	99	75	75	YES	511	2	chinese	low
1887_4026	3	5	CH1_CHIN	2	100	68	68	YES	496	2	chinese	low
1887_4026	3	5	CH1_CHIN	2	101	68	68	YES	376	2	chinese	low
1887_4026	9	5	CH1_CHIN	2	102	75	75	YES	440	2	chinese	low
1887_4026	4	5	CH1_CHIN	2	103	68	68	YES	552	2	chinese	low
1887_4026	7	5	CH1_CHIN	2	104	75	75	YES	384	2	chinese	low
1887_4026	9	5	CH1_CHIN	2	105	75	75	YES	480	2	chinese	low
1887_4026	1	5	CH1_CHIN	2	106	68	68	YES	479	2	chinese	low
1887_4026	4	5	CH1_CHIN	2	107	68	68	YES	513	2	chinese	low
1887_4026	6	5	CH1_CHIN	2	108	75	75	YES	432	2	chinese	low
1887_4026	8	5	CH1_CHIN	2	109	75	75	YES	497	2	chinese	low
1887_4026	3	5	CH1_CHIN	2	110	68	68	YES	681	2	chinese	low
1887_4026	4	5	CH1_CHIN	2	111	68	68	YES	873	2	chinese	low
1887_4026	7	5	CH1_CHIN	2	112	75	75	YES	977	2	chinese	low
1887_4026	2	5	CH1_CHIN	2	113	68	68	YES	471	2	chinese	low
1887_4026	2	5	CH1_CHIN	2	114	68	68	YES	441	2	chinese	low
1887_4026	6	5	CH1_CHIN	2	115	75	75	YES	472	2	chinese	low
1887_4026	1	5	CH1_CHIN	2	116	68	68	YES	448	2	chinese	low
1887_4026	3	5	CH1_CHIN	2	117	68	68	YES	504	2	chinese	low
1887_4026	8	5	CH1_CHIN	2	118	75	75	YES	440	2	chinese	low
1887_4026	6	5	CH1_CHIN	2	119	75	75	YES	496	2	chinese	low
1887_4026	8	5	CH1_CHIN	2	120	75	75	YES	391	2	chinese	low
1887_4026	2	5	CH1_CHIN	3	1	68	68	YES	534	2	chinese	low
1887_4026	2	5	CH1_CHIN	3	2	68	68	YES	400	2	chinese	low
1887_4026	6	5	CH1_CHIN	3	3	75	75	YES	456	2	chinese	low
1887_4026	6	5	CH1_CHIN	3	4	75	75	YES	424	2	chinese	low
1887_4026	6	5	CH1_CHIN	3	5	75	75	YES	385	2	chinese	low
1887_4026	8	5	CH1_CHIN	3	6	75	75	YES	472	2	chinese	low
1887_4026	3	5	CH1_CHIN	3	7	68	68	YES	480	2	chinese	low
1887_4026	4	5	CH1_CHIN	3	8	68	68	YES	503	2	chinese	low
1887_4026	1	5	CH1_CHIN	3	9	68	68	YES	392	2	chinese	low
1887_4026	7	5	CH1_CHIN	3	10	75	75	YES	440	2	chinese	low
1887_4026	4	5	CH1_CHIN	3	11	68	68	YES	503	2	chinese	low
1887_4026	3	5	CH1_CHIN	3	12	68	68	YES	497	2	chinese	low
1887_4026	6	5	CH1_CHIN	3	13	75	75	YES	415	2	chinese	low
1887_4026	7	5	CH1_CHIN	3	14	75	75	YES	529	2	chinese	low
1887_4026	3	5	CH1_CHIN	3	15	68	68	YES	424	2	chinese	low
1887_4026	1	5	CH1_CHIN	3	16	68	68	YES	432	2	chinese	low
1887_4026	7	5	CH1_CHIN	3	17	75	75	YES	433	2	chinese	low
1887_4026	2	5	CH1_CHIN	3	18	68	68	YES	544	2	chinese	low
1887_4026	7	5	CH1_CHIN	3	19	75	75	YES	393	2	chinese	low
1887_4026	1	5	CH1_CHIN	3	20	68	68	YES	424	2	chinese	low
1887_4026	4	5	CH1_CHIN	3	21	68	68	YES	585	2	chinese	low
1887_4026	4	5	CH1_CHIN	3	22	68	68	YES	391	2	chinese	low
1887_4026	4	5	CH1_CHIN	3	23	68	68	YES	409	2	chinese	low
1887_4026	1	5	CH1_CHIN	3	24	68	68	YES	504	2	chinese	low
1887_4026	4	5	CH1_CHIN	3	25	68	68	YES	715	2	chinese	low
1887_4026	1	5	CH1_CHIN	3	26	68	68	YES	400	2	chinese	low
1887_4026	2	5	CH1_CHIN	3	27	68	68	YES	464	2	chinese	low
1887_4026	3	5	CH1_CHIN	3	28	68	68	YES	481	2	chinese	low
1887_4026	4	5	CH1_CHIN	3	29	68	68	YES	384	2	chinese	low
1887_4026	4	5	CH1_CHIN	3	30	68	68	YES	345	2	chinese	low
1887_4026	9	5	CH1_CHIN	3	31	75	75	YES	472	2	chinese	low
1887_4026	4	5	CH1_CHIN	3	32	68	68	YES	400	2	chinese	low
1887_4026	9	5	CH1_CHIN	3	33	75	75	YES	567	2	chinese	low
1887_4026	7	5	CH1_CHIN	3	34	75	75	YES	530	2	chinese	low
1887_4026	1	5	CH1_CHIN	3	35	68	68	YES	383	2	chinese	low
1887_4026	8	5	CH1_CHIN	3	36	75	75	YES	489	2	chinese	low
1887_4026	9	5	CH1_CHIN	3	37	75	75	YES	440	2	chinese	low
1887_4026	1	5	CH1_CHIN	3	38	68	68	YES	408	2	chinese	low
1887_4026	9	5	CH1_CHIN	3	39	75	75	YES	432	2	chinese	low
1887_4026	4	5	CH1_CHIN	3	40	68	68	YES	576	2	chinese	low
1887_4026	3	5	CH1_CHIN	3	41	68	68	YES	384	2	chinese	low
1887_4026	9	5	CH1_CHIN	3	42	75	75	YES	465	2	chinese	low
1887_4026	8	5	CH1_CHIN	3	43	75	75	YES	519	2	chinese	low
1887_4026	4	5	CH1_CHIN	3	44	68	68	YES	456	2	chinese	low
1887_4026	1	5	CH1_CHIN	3	45	68	68	YES	385	2	chinese	low
1887_4026	4	5	CH1_CHIN	3	46	68	68	YES	520	2	chinese	low
1887_4026	9	5	CH1_CHIN	3	47	75	75	YES	769	2	chinese	low
1887_4026	8	5	CH1_CHIN	3	48	75	75	YES	696	2	chinese	low
1887_4026	1	5	CH1_CHIN	3	49	68	68	YES	441	2	chinese	low
1887_4026	1	5	CH1_CHIN	3	50	68	68	YES	383	2	chinese	low
1887_4026	8	5	CH1_CHIN	3	51	75	75	YES	496	2	chinese	low
1887_4026	2	5	CH1_CHIN	3	52	68	68	YES	415	2	chinese	low
1887_4026	9	5	CH1_CHIN	3	53	75	75	YES	416	2	chinese	low
1887_4026	8	5	CH1_CHIN	3	54	75	75	YES	456	2	chinese	low
1887_4026	1	5	CH1_CHIN	3	55	68	68	YES	408	2	chinese	low
1887_4026	1	5	CH1_CHIN	3	56	68	68	YES	472	2	chinese	low
1887_4026	2	5	CH1_CHIN	3	57	68	68	YES	712	2	chinese	low
1887_4026	7	5	CH1_CHIN	3	58	75	75	YES	472	2	chinese	low
1887_4026	9	5	CH1_CHIN	3	59	75	75	YES	416	2	chinese	low
1887_4026	6	5	CH1_CHIN	3	60	75	75	YES	544	2	chinese	low
1887_4026	2	5	CH1_CHIN	3	61	68	68	YES	560	2	chinese	low
1887_4026	9	5	CH1_CHIN	3	62	75	75	YES	417	2	chinese	low
1887_4026	4	5	CH1_CHIN	3	63	68	68	YES	546	2	chinese	low
1887_4026	8	5	CH1_CHIN	3	64	75	75	YES	554	2	chinese	low
1887_4026	8	5	CH1_CHIN	3	65	75	75	YES	465	2	chinese	low
1887_4026	9	5	CH1_CHIN	3	66	75	75	YES	552	2	chinese	low
1887_4026	3	5	CH1_CHIN	3	67	68	68	YES	376	2	chinese	low
1887_4026	4	5	CH1_CHIN	3	68	68	68	YES	448	2	chinese	low
1887_4026	2	5	CH1_CHIN	3	69	68	68	YES	392	2	chinese	low
1887_4026	4	5	CH1_CHIN	3	70	68	68	YES	455	2	chinese	low
1887_4026	9	5	CH1_CHIN	3	71	75	75	YES	568	2	chinese	low
1887_4026	2	5	CH1_CHIN	3	72	68	68	YES	640	2	chinese	low
1887_4026	2	5	CH1_CHIN	3	73	68	68	YES	449	2	chinese	low
1887_4026	7	5	CH1_CHIN	3	74	75	75	YES	433	2	chinese	low
1887_4026	2	5	CH1_CHIN	3	75	68	68	YES	464	2	chinese	low
1887_4026	8	5	CH1_CHIN	3	76	75	75	YES	448	2	chinese	low
1887_4026	3	5	CH1_CHIN	3	77	68	68	YES	513	2	chinese	low
1887_4026	9	5	CH1_CHIN	3	78	75	75	YES	551	2	chinese	low
1887_4026	8	5	CH1_CHIN	3	79	75	75	YES	464	2	chinese	low
1887_4026	8	5	CH1_CHIN	3	80	75	75	YES	408	2	chinese	low
1887_4026	8	5	CH1_CHIN	3	81	75	75	YES	400	2	chinese	low
1887_4026	4	5	CH1_CHIN	3	82	68	68	YES	696	2	chinese	low
1887_4026	1	5	CH1_CHIN	3	83	68	68	YES	560	2	chinese	low
1887_4026	8	5	CH1_CHIN	3	84	75	75	YES	423	2	chinese	low
1887_4026	4	5	CH1_CHIN	3	85	68	68	YES	777	2	chinese	low
1887_4026	4	5	CH1_CHIN	3	86	68	68	YES	408	2	chinese	low
1887_4026	6	5	CH1_CHIN	3	87	75	75	YES	614	2	chinese	low
1887_4026	2	5	CH1_CHIN	3	88	68	68	YES	513	2	chinese	low
1887_4026	9	5	CH1_CHIN	3	89	75	75	YES	488	2	chinese	low
1887_4026	8	5	CH1_CHIN	3	90	75	75	YES	496	2	chinese	low
1887_4026	2	5	CH1_CHIN	3	91	68	68	YES	488	2	chinese	low
1887_4026	6	5	CH1_CHIN	3	92	75	75	YES	520	2	chinese	low
1887_4026	1	5	CH1_CHIN	3	93	68	68	YES	360	2	chinese	low
1887_4026	6	5	CH1_CHIN	3	94	75	75	YES	527	2	chinese	low
1887_4026	1	5	CH1_CHIN	3	95	68	68	YES	417	2	chinese	low
1887_4026	2	5	CH1_CHIN	3	96	68	68	YES	472	2	chinese	low
1887_4026	6	5	CH1_CHIN	3	97	75	75	YES	514	2	chinese	low
1887_4026	8	5	CH1_CHIN	3	98	75	75	YES	489	2	chinese	low
1887_4026	2	5	CH1_CHIN	3	99	68	68	YES	616	2	chinese	low
1887_4026	3	5	CH1_CHIN	3	100	68	68	YES	537	2	chinese	low
1887_4026	4	5	CH1_CHIN	3	101	68	68	YES	648	2	chinese	low
1887_4026	3	5	CH1_CHIN	3	102	68	68	YES	520	2	chinese	low
1887_4026	7	5	CH1_CHIN	3	103	75	75	YES	511	2	chinese	low
1887_4026	9	5	CH1_CHIN	3	104	75	75	YES	431	2	chinese	low
1887_4026	8	5	CH1_CHIN	3	105	75	75	YES	529	2	chinese	low
1887_4026	8	5	CH1_CHIN	3	106	75	75	YES	399	2	chinese	low
1887_4026	8	5	CH1_CHIN	3	107	75	75	YES	330	2	chinese	low
1887_4026	8	5	CH1_CHIN	3	108	75	75	YES	393	2	chinese	low
1887_4026	3	5	CH1_CHIN	3	109	68	68	YES	409	2	chinese	low
1887_4026	2	5	CH1_CHIN	3	110	68	68	YES	440	2	chinese	low
1887_4026	4	5	CH1_CHIN	3	111	68	68	YES	610	2	chinese	low
1887_4026	1	5	CH1_CHIN	3	112	68	68	YES	473	2	chinese	low
1887_4026	2	5	CH1_CHIN	3	113	68	68	YES	360	2	chinese	low
1887_4026	3	5	CH1_CHIN	3	114	68	68	YES	407	2	chinese	low
1887_4026	4	5	CH1_CHIN	3	115	68	68	YES	376	2	chinese	low
1887_4026	4	5	CH1_CHIN	3	116	68	68	YES	367	2	chinese	low
1887_4026	2	5	CH1_CHIN	3	117	68	68	YES	449	2	chinese	low
1887_4026	7	5	CH1_CHIN	3	118	68	75	NO	391	2	chinese	low
1887_4026	9	5	CH1_CHIN	3	119	75	75	YES	386	2	chinese	low
1887_4026	9	5	CH1_CHIN	3	120	75	75	YES	375	2	chinese	low
1887_4026	4	5	CH1_CHIN	4	1	68	68	YES	667	2	chinese	low
1887_4026	9	5	CH1_CHIN	4	2	75	75	YES	425	2	chinese	low
1887_4026	3	5	CH1_CHIN	4	3	68	68	YES	431	2	chinese	low
1887_4026	7	5	CH1_CHIN	4	4	75	75	YES	528	2	chinese	low
1887_4026	7	5	CH1_CHIN	4	5	75	75	YES	463	2	chinese	low
1887_4026	7	5	CH1_CHIN	4	6	75	75	YES	377	2	chinese	low
1887_4026	8	5	CH1_CHIN	4	7	75	75	YES	448	2	chinese	low
1887_4026	8	5	CH1_CHIN	4	8	75	75	YES	367	2	chinese	low
1887_4026	2	5	CH1_CHIN	4	9	68	68	YES	568	2	chinese	low
1887_4026	6	5	CH1_CHIN	4	10	75	75	YES	504	2	chinese	low
1887_4026	6	5	CH1_CHIN	4	11	75	75	YES	504	2	chinese	low
1887_4026	6	5	CH1_CHIN	4	12	75	75	YES	454	2	chinese	low
1887_4026	7	5	CH1_CHIN	4	13	75	75	YES	409	2	chinese	low
1887_4026	7	5	CH1_CHIN	4	14	75	75	YES	416	2	chinese	low
1887_4026	3	5	CH1_CHIN	4	15	68	68	YES	432	2	chinese	low
1887_4026	4	5	CH1_CHIN	4	16	68	68	YES	616	2	chinese	low
1887_4026	6	5	CH1_CHIN	4	17	75	75	YES	720	2	chinese	low
1887_4026	7	5	CH1_CHIN	4	18	75	75	YES	449	2	chinese	low
1887_4026	9	5	CH1_CHIN	4	19	75	75	YES	601	2	chinese	low
1887_4026	3	5	CH1_CHIN	4	20	68	68	YES	577	2	chinese	low
1887_4026	9	5	CH1_CHIN	4	21	75	75	YES	487	2	chinese	low
1887_4026	7	5	CH1_CHIN	4	22	75	75	YES	632	2	chinese	low
1887_4026	3	5	CH1_CHIN	4	23	68	68	YES	488	2	chinese	low
1887_4026	7	5	CH1_CHIN	4	24	75	75	YES	480	2	chinese	low
1887_4026	6	5	CH1_CHIN	4	25	75	75	YES	735	2	chinese	low
1887_4026	9	5	CH1_CHIN	4	26	75	75	YES	416	2	chinese	low
1887_4026	8	5	CH1_CHIN	4	27	75	75	YES	391	2	chinese	low
1887_4026	3	5	CH1_CHIN	4	28	68	68	YES	432	2	chinese	low
1887_4026	9	5	CH1_CHIN	4	29	75	75	YES	432	2	chinese	low
1887_4026	3	5	CH1_CHIN	4	30	68	68	YES	472	2	chinese	low
1887_4026	7	5	CH1_CHIN	4	31	75	75	YES	456	2	chinese	low
1887_4026	1	5	CH1_CHIN	4	32	68	68	YES	384	2	chinese	low
1887_4026	3	5	CH1_CHIN	4	33	68	68	YES	488	2	chinese	low
1887_4026	8	5	CH1_CHIN	4	34	75	75	YES	385	2	chinese	low
1887_4026	1	5	CH1_CHIN	4	35	68	68	YES	408	2	chinese	low
1887_4026	9	5	CH1_CHIN	4	36	75	75	YES	400	2	chinese	low
1887_4026	7	5	CH1_CHIN	4	37	75	75	YES	432	2	chinese	low
1887_4026	3	5	CH1_CHIN	4	38	68	68	YES	448	2	chinese	low
1887_4026	7	5	CH1_CHIN	4	39	75	75	YES	414	2	chinese	low
1887_4026	3	5	CH1_CHIN	4	40	68	68	YES	464	2	chinese	low
1887_4026	4	5	CH1_CHIN	4	41	68	68	YES	641	2	chinese	low
1887_4026	1	5	CH1_CHIN	4	42	68	68	YES	446	2	chinese	low
1887_4026	2	5	CH1_CHIN	4	43	68	68	YES	466	2	chinese	low
1887_4026	1	5	CH1_CHIN	4	44	68	68	YES	353	2	chinese	low
1887_4026	6	5	CH1_CHIN	4	45	75	75	YES	513	2	chinese	low
1887_4026	4	5	CH1_CHIN	4	46	68	68	YES	472	2	chinese	low
1887_4026	2	5	CH1_CHIN	4	47	68	68	YES	512	2	chinese	low
1887_4026	6	5	CH1_CHIN	4	48	75	75	YES	745	2	chinese	low
1887_4026	8	5	CH1_CHIN	4	49	75	75	YES	472	2	chinese	low
1887_4026	1	5	CH1_CHIN	4	50	68	68	YES	392	2	chinese	low
1887_4026	6	5	CH1_CHIN	4	51	75	75	YES	407	2	chinese	low
1887_4026	1	5	CH1_CHIN	4	52	68	68	YES	409	2	chinese	low
1887_4026	7	5	CH1_CHIN	4	53	75	75	YES	416	2	chinese	low
1887_4026	7	5	CH1_CHIN	4	54	75	75	YES	434	2	chinese	low
1887_4026	3	5	CH1_CHIN	4	55	68	68	YES	375	2	chinese	low
1887_4026	7	5	CH1_CHIN	4	56	75	75	YES	360	2	chinese	low
1887_4026	6	5	CH1_CHIN	4	57	75	75	YES	447	2	chinese	low
1887_4026	4	5	CH1_CHIN	4	58	68	68	YES	433	2	chinese	low
1887_4026	9	5	CH1_CHIN	4	59	75	75	YES	415	2	chinese	low
1887_4026	6	5	CH1_CHIN	4	60	75	75	YES	577	2	chinese	low
1887_4026	8	5	CH1_CHIN	4	61	75	75	YES	463	2	chinese	low
1887_4026	2	5	CH1_CHIN	4	62	68	68	YES	432	2	chinese	low
1887_4026	8	5	CH1_CHIN	4	63	75	75	YES	392	2	chinese	low
1887_4026	9	5	CH1_CHIN	4	64	75	75	YES	489	2	chinese	low
1887_4026	7	5	CH1_CHIN	4	65	75	75	YES	759	2	chinese	low
1887_4026	2	5	CH1_CHIN	4	66	68	68	YES	448	2	chinese	low
1887_4026	7	5	CH1_CHIN	4	67	75	75	YES	448	2	chinese	low
1887_4026	2	5	CH1_CHIN	4	68	68	68	YES	536	2	chinese	low
1887_4026	6	5	CH1_CHIN	4	69	75	75	YES	537	2	chinese	low
1887_4026	1	5	CH1_CHIN	4	70	68	68	YES	448	2	chinese	low
1887_4026	6	5	CH1_CHIN	4	71	75	75	YES	400	2	chinese	low
1887_4026	9	5	CH1_CHIN	4	72	75	75	YES	392	2	chinese	low
1887_4026	3	5	CH1_CHIN	4	73	68	68	YES	776	2	chinese	low
1887_4026	1	5	CH1_CHIN	4	74	68	68	YES	431	2	chinese	low
1887_4026	3	5	CH1_CHIN	4	75	68	68	YES	624	2	chinese	low
1887_4026	9	5	CH1_CHIN	4	76	75	75	YES	360	2	chinese	low
1887_4026	1	5	CH1_CHIN	4	77	68	68	YES	431	2	chinese	low
1887_4026	2	5	CH1_CHIN	4	78	68	68	YES	567	2	chinese	low
1887_4026	6	5	CH1_CHIN	4	79	75	75	YES	537	2	chinese	low
1887_4026	8	5	CH1_CHIN	4	80	75	75	YES	480	2	chinese	low
1887_4026	6	5	CH1_CHIN	4	81	75	75	YES	624	2	chinese	low
1887_4026	4	5	CH1_CHIN	4	82	68	68	YES	609	2	chinese	low
1887_4026	8	5	CH1_CHIN	4	83	75	75	YES	423	2	chinese	low
1887_4026	1	5	CH1_CHIN	4	84	68	68	YES	448	2	chinese	low
1887_4026	8	5	CH1_CHIN	4	85	75	75	YES	383	2	chinese	low
1887_4026	3	5	CH1_CHIN	4	86	68	68	YES	528	2	chinese	low
1887_4026	1	5	CH1_CHIN	4	87	68	68	YES	368	2	chinese	low
1887_4026	4	5	CH1_CHIN	4	88	68	68	YES	432	2	chinese	low
1887_4026	4	5	CH1_CHIN	4	89	68	68	YES	376	2	chinese	low
1887_4026	9	5	CH1_CHIN	4	90	75	75	YES	433	2	chinese	low
1887_4026	8	5	CH1_CHIN	4	91	75	75	YES	543	2	chinese	low
1887_4026	6	5	CH1_CHIN	4	92	68	75	NO	528	2	chinese	low
1887_4026	9	5	CH1_CHIN	4	93	75	75	YES	424	2	chinese	low
1887_4026	1	5	CH1_CHIN	4	94	68	68	YES	542	2	chinese	low
1887_4026	9	5	CH1_CHIN	4	95	75	75	YES	504	2	chinese	low
1887_4026	4	5	CH1_CHIN	4	96	68	68	YES	456	2	chinese	low
1887_4026	8	5	CH1_CHIN	4	97	75	75	YES	440	2	chinese	low
1887_4026	2	5	CH1_CHIN	4	98	68	68	YES	520	2	chinese	low
1887_4026	3	5	CH1_CHIN	4	99	68	68	YES	656	2	chinese	low
1887_4026	6	5	CH1_CHIN	4	100	75	75	YES	490	2	chinese	low
1887_4026	8	5	CH1_CHIN	4	101	75	75	YES	529	2	chinese	low
1887_4026	2	5	CH1_CHIN	4	102	68	68	YES	561	2	chinese	low
1887_4026	6	5	CH1_CHIN	4	103	75	75	YES	400	2	chinese	low
1887_4026	2	5	CH1_CHIN	4	104	68	68	YES	575	2	chinese	low
1887_4026	2	5	CH1_CHIN	4	105	68	68	YES	681	2	chinese	low
1887_4026	1	5	CH1_CHIN	4	106	68	68	YES	495	2	chinese	low
1887_4026	7	5	CH1_CHIN	4	107	75	75	YES	487	2	chinese	low
1887_4026	4	5	CH1_CHIN	4	108	68	68	YES	513	2	chinese	low
1887_4026	6	5	CH1_CHIN	4	109	75	75	YES	488	2	chinese	low
1887_4026	6	5	CH1_CHIN	4	110	75	75	YES	433	2	chinese	low
1887_4026	6	5	CH1_CHIN	4	111	75	75	YES	383	2	chinese	low
1887_4026	2	5	CH1_CHIN	4	112	68	68	YES	409	2	chinese	low
1887_4026	8	5	CH1_CHIN	4	113	75	75	YES	392	2	chinese	low
1887_4026	2	5	CH1_CHIN	4	114	68	68	YES	521	2	chinese	low
1887_4026	6	5	CH1_CHIN	4	115	75	75	YES	399	2	chinese	low
1887_4026	8	5	CH1_CHIN	4	116	75	75	YES	385	2	chinese	low
1887_4026	7	5	CH1_CHIN	4	117	75	75	YES	471	2	chinese	low
1887_4026	1	5	CH1_CHIN	4	118	68	68	YES	426	2	chinese	low
1887_4026	1	5	CH1_CHIN	4	119	68	68	YES	423	2	chinese	low
1887_4026	1	5	CH1_CHIN	4	120	68	68	YES	377	2	chinese	low
1887_4026	4	5	CH1_CHIN	5	1	68	68	YES	527	2	chinese	low
1887_4026	7	5	CH1_CHIN	5	2	75	75	YES	471	2	chinese	low
1887_4026	8	5	CH1_CHIN	5	3	75	75	YES	416	2	chinese	low
1887_4026	3	5	CH1_CHIN	5	4	68	68	YES	647	2	chinese	low
1887_4026	9	5	CH1_CHIN	5	5	75	75	YES	463	2	chinese	low
1887_4026	8	5	CH1_CHIN	5	6	75	75	YES	512	2	chinese	low
1887_4026	6	5	CH1_CHIN	5	7	75	75	YES	584	2	chinese	low
1887_4026	1	5	CH1_CHIN	5	8	68	68	YES	351	2	chinese	low
1887_4026	9	5	CH1_CHIN	5	9	75	75	YES	376	2	chinese	low
1887_4026	4	5	CH1_CHIN	5	10	75	68	NO	377	2	chinese	low
1887_4026	7	5	CH1_CHIN	5	11	75	75	YES	502	2	chinese	low
1887_4026	2	5	CH1_CHIN	5	12	68	68	YES	433	2	chinese	low
1887_4026	9	5	CH1_CHIN	5	13	75	75	YES	488	2	chinese	low
1887_4026	7	5	CH1_CHIN	5	14	75	75	YES	576	2	chinese	low
1887_4026	6	5	CH1_CHIN	5	15	75	75	YES	448	2	chinese	low
1887_4026	2	5	CH1_CHIN	5	16	68	68	YES	497	2	chinese	low
1887_4026	6	5	CH1_CHIN	5	17	75	75	YES	416	2	chinese	low
1887_4026	2	5	CH1_CHIN	5	18	68	68	YES	457	2	chinese	low
1887_4026	9	5	CH1_CHIN	5	19	75	75	YES	361	2	chinese	low
1887_4026	9	5	CH1_CHIN	5	20	75	75	YES	457	2	chinese	low
1887_4026	1	5	CH1_CHIN	5	21	68	68	YES	417	2	chinese	low
1887_4026	3	5	CH1_CHIN	5	22	68	68	YES	486	2	chinese	low
1887_4026	9	5	CH1_CHIN	5	23	75	75	YES	474	2	chinese	low
1887_4026	7	5	CH1_CHIN	5	24	75	75	YES	624	2	chinese	low
1887_4026	6	5	CH1_CHIN	5	25	75	75	YES	400	2	chinese	low
1887_4026	7	5	CH1_CHIN	5	26	75	75	YES	399	2	chinese	low
1887_4026	7	5	CH1_CHIN	5	27	75	75	YES	383	2	chinese	low
1887_4026	4	5	CH1_CHIN	5	28	68	68	YES	392	2	chinese	low
1887_4026	6	5	CH1_CHIN	5	29	75	75	YES	535	2	chinese	low
1887_4026	3	5	CH1_CHIN	5	30	68	68	YES	456	2	chinese	low
1887_4026	6	5	CH1_CHIN	5	31	75	75	YES	464	2	chinese	low
1887_4026	1	5	CH1_CHIN	5	32	68	68	YES	383	2	chinese	low
1887_4026	8	5	CH1_CHIN	5	33	75	75	YES	376	2	chinese	low
1887_4026	8	5	CH1_CHIN	5	34	75	75	YES	408	2	chinese	low
1887_4026	7	5	CH1_CHIN	5	35	75	75	YES	520	2	chinese	low
1887_4026	6	5	CH1_CHIN	5	36	75	75	YES	464	2	chinese	low
1887_4026	3	5	CH1_CHIN	5	37	68	68	YES	431	2	chinese	low
1887_4026	4	5	CH1_CHIN	5	38	68	68	YES	647	2	chinese	low
1887_4026	2	5	CH1_CHIN	5	39	68	68	YES	422	2	chinese	low
1887_4026	7	5	CH1_CHIN	5	40	75	75	YES	440	2	chinese	low
1887_4026	7	5	CH1_CHIN	5	41	75	75	YES	383	2	chinese	low
1887_4026	6	5	CH1_CHIN	5	42	75	75	YES	473	2	chinese	low
1887_4026	9	5	CH1_CHIN	5	43	75	75	YES	479	2	chinese	low
1887_4026	1	5	CH1_CHIN	5	44	68	68	YES	424	2	chinese	low
1887_4026	3	5	CH1_CHIN	5	45	68	68	YES	439	2	chinese	low
1887_4026	1	5	CH1_CHIN	5	46	68	68	YES	384	2	chinese	low
1887_4026	6	5	CH1_CHIN	5	47	75	75	YES	632	2	chinese	low
1887_4026	6	5	CH1_CHIN	5	48	75	75	YES	495	2	chinese	low
1887_4026	4	5	CH1_CHIN	5	49	75	68	NO	499	2	chinese	low
1887_4026	8	5	CH1_CHIN	5	50	75	75	YES	472	2	chinese	low
1887_4026	9	5	CH1_CHIN	5	51	75	75	YES	400	2	chinese	low
1887_4026	3	5	CH1_CHIN	5	52	68	68	YES	968	2	chinese	low
1887_4026	9	5	CH1_CHIN	5	53	75	75	YES	432	2	chinese	low
1887_4026	4	5	CH1_CHIN	5	54	68	68	YES	528	2	chinese	low
1887_4026	7	5	CH1_CHIN	5	55	75	75	YES	496	2	chinese	low
1887_4026	6	5	CH1_CHIN	5	56	75	75	YES	527	2	chinese	low
1887_4026	3	5	CH1_CHIN	5	57	68	68	YES	489	2	chinese	low
1887_4026	8	5	CH1_CHIN	5	58	75	75	YES	888	2	chinese	low
1887_4026	3	5	CH1_CHIN	5	59	68	68	YES	440	2	chinese	low
1887_4026	8	5	CH1_CHIN	5	60	75	75	YES	415	2	chinese	low
1887_4026	2	5	CH1_CHIN	5	61	68	68	YES	464	2	chinese	low
1887_4026	6	5	CH1_CHIN	5	62	68	75	NO	456	2	chinese	low
1887_4026	1	5	CH1_CHIN	5	63	68	68	YES	576	2	chinese	low
1887_4026	8	5	CH1_CHIN	5	64	75	75	YES	504	2	chinese	low
1887_4026	9	5	CH1_CHIN	5	65	75	75	YES	440	2	chinese	low
1887_4026	4	5	CH1_CHIN	5	66	68	68	YES	599	2	chinese	low
1887_4026	2	5	CH1_CHIN	5	67	68	68	YES	560	2	chinese	low
1887_4026	2	5	CH1_CHIN	5	68	68	68	YES	440	2	chinese	low
1887_4026	8	5	CH1_CHIN	5	69	75	75	YES	465	2	chinese	low
1887_4026	1	5	CH1_CHIN	5	70	68	68	YES	448	2	chinese	low
1887_4026	8	5	CH1_CHIN	5	71	75	75	YES	479	2	chinese	low
1887_4026	8	5	CH1_CHIN	5	72	75	75	YES	448	2	chinese	low
1887_4026	4	5	CH1_CHIN	5	73	68	68	YES	504	2	chinese	low
1887_4026	3	5	CH1_CHIN	5	74	68	68	YES	473	2	chinese	low
1887_4026	3	5	CH1_CHIN	5	75	68	68	YES	544	2	chinese	low
1887_4026	7	5	CH1_CHIN	5	76	75	75	YES	633	2	chinese	low
1887_4026	9	5	CH1_CHIN	5	77	75	75	YES	631	2	chinese	low
1887_4026	9	5	CH1_CHIN	5	78	75	75	YES	366	2	chinese	low
1887_4026	7	5	CH1_CHIN	5	79	75	75	YES	633	2	chinese	low
1887_4026	3	5	CH1_CHIN	5	80	68	68	YES	688	2	chinese	low
1887_4026	2	5	CH1_CHIN	5	81	68	68	YES	423	2	chinese	low
1887_4026	4	5	CH1_CHIN	5	82	68	68	YES	466	2	chinese	low
1887_4026	7	5	CH1_CHIN	5	83	75	75	YES	536	2	chinese	low
1887_4026	3	5	CH1_CHIN	5	84	68	68	YES	440	2	chinese	low
1887_4026	1	5	CH1_CHIN	5	85	68	68	YES	513	2	chinese	low
1887_4026	8	5	CH1_CHIN	5	86	75	75	YES	441	2	chinese	low
1887_4026	9	5	CH1_CHIN	5	87	75	75	YES	480	2	chinese	low
1887_4026	3	5	CH1_CHIN	5	88	68	68	YES	456	2	chinese	low
1887_4026	2	5	CH1_CHIN	5	89	68	68	YES	434	2	chinese	low
1887_4026	8	5	CH1_CHIN	5	90	75	75	YES	455	2	chinese	low
1887_4026	4	5	CH1_CHIN	5	91	68	68	YES	505	2	chinese	low
1887_4026	1	5	CH1_CHIN	5	92	68	68	YES	397	2	chinese	low
1887_4026	4	5	CH1_CHIN	5	93	68	68	YES	449	2	chinese	low
1887_4026	8	5	CH1_CHIN	5	94	75	75	YES	519	2	chinese	low
1887_4026	8	5	CH1_CHIN	5	95	75	75	YES	511	2	chinese	low
1887_4026	9	5	CH1_CHIN	5	96	75	75	YES	479	2	chinese	low
1887_4026	6	5	CH1_CHIN	5	97	75	75	YES	625	2	chinese	low
1887_4026	4	5	CH1_CHIN	5	98	68	68	YES	431	2	chinese	low
1887_4026	1	5	CH1_CHIN	5	99	68	68	YES	399	2	chinese	low
1887_4026	4	5	CH1_CHIN	5	100	68	68	YES	481	2	chinese	low
1887_4026	3	5	CH1_CHIN	5	101	68	68	YES	696	2	chinese	low
1887_4026	4	5	CH1_CHIN	5	102	68	68	YES	656	2	chinese	low
1887_4026	9	5	CH1_CHIN	5	103	75	75	YES	624	2	chinese	low
1887_4026	6	5	CH1_CHIN	5	104	75	75	YES	656	2	chinese	low
1887_4026	3	5	CH1_CHIN	5	105	68	68	YES	567	2	chinese	low
1887_4026	6	5	CH1_CHIN	5	106	75	75	YES	489	2	chinese	low
1887_4026	2	5	CH1_CHIN	5	107	68	68	YES	433	2	chinese	low
1887_4026	2	5	CH1_CHIN	5	108	68	68	YES	434	2	chinese	low
1887_4026	6	5	CH1_CHIN	5	109	75	75	YES	488	2	chinese	low
1887_4026	1	5	CH1_CHIN	5	110	68	68	YES	416	2	chinese	low
1887_4026	4	5	CH1_CHIN	5	111	68	68	YES	896	2	chinese	low
1887_4026	8	5	CH1_CHIN	5	112	75	75	YES	400	2	chinese	low
1887_4026	7	5	CH1_CHIN	5	113	75	75	YES	479	2	chinese	low
1887_4026	3	5	CH1_CHIN	5	114	68	68	YES	448	2	chinese	low
1887_4026	6	5	CH1_CHIN	5	115	75	75	YES	486	2	chinese	low
1887_4026	4	5	CH1_CHIN	5	116	68	68	YES	482	2	chinese	low
1887_4026	1	5	CH1_CHIN	5	117	68	68	YES	408	2	chinese	low
1887_4026	7	5	CH1_CHIN	5	118	68	75	NO	770	2	chinese	low
1887_4026	2	5	CH1_CHIN	5	119	68	68	YES	512	2	chinese	low
1887_4026	9	5	CH1_CHIN	5	120	75	75	YES	400	2	chinese	low
2016_4020	4	5	CH1_CHIN	1	1	NA	68	NO	NA	2	chinese	low
2016_4020	2	5	CH1_CHIN	1	2	68	68	YES	776	2	chinese	low
2016_4020	8	5	CH1_CHIN	1	3	75	75	YES	585	2	chinese	low
2016_4020	3	5	CH1_CHIN	1	4	68	68	YES	490	2	chinese	low
2016_4020	1	5	CH1_CHIN	1	5	68	68	YES	450	2	chinese	low
2016_4020	7	5	CH1_CHIN	1	6	75	75	YES	482	2	chinese	low
2016_4020	6	5	CH1_CHIN	1	7	75	75	YES	778	2	chinese	low
2016_4020	9	5	CH1_CHIN	1	8	75	75	YES	497	2	chinese	low
2016_4020	3	5	CH1_CHIN	2	1	68	68	YES	574	2	chinese	low
2016_4020	2	5	CH1_CHIN	2	2	68	68	YES	450	2	chinese	low
2016_4020	6	5	CH1_CHIN	2	3	75	75	YES	1057	2	chinese	low
2016_4020	7	5	CH1_CHIN	2	4	75	75	YES	425	2	chinese	low
2016_4020	2	5	CH1_CHIN	2	5	68	68	YES	434	2	chinese	low
2016_4020	8	5	CH1_CHIN	2	6	75	75	YES	818	2	chinese	low
2016_4020	3	5	CH1_CHIN	2	7	68	68	YES	450	2	chinese	low
2016_4020	9	5	CH1_CHIN	2	8	75	75	YES	441	2	chinese	low
2016_4020	6	5	CH1_CHIN	2	9	75	75	YES	641	2	chinese	low
2016_4020	9	5	CH1_CHIN	2	10	75	75	YES	409	2	chinese	low
2016_4020	6	5	CH1_CHIN	2	11	75	75	YES	449	2	chinese	low
2016_4020	2	5	CH1_CHIN	2	12	68	68	YES	623	2	chinese	low
2016_4020	2	5	CH1_CHIN	2	13	68	68	YES	601	2	chinese	low
2016_4020	3	5	CH1_CHIN	2	14	68	68	YES	680	2	chinese	low
2016_4020	1	5	CH1_CHIN	2	15	68	68	YES	505	2	chinese	low
2016_4020	9	5	CH1_CHIN	2	16	75	75	YES	538	2	chinese	low
2016_4020	4	5	CH1_CHIN	2	17	68	68	YES	946	2	chinese	low
2016_4020	4	5	CH1_CHIN	2	18	68	68	YES	514	2	chinese	low
2016_4020	9	5	CH1_CHIN	2	19	75	75	YES	505	2	chinese	low
2016_4020	8	5	CH1_CHIN	2	20	75	75	YES	482	2	chinese	low
2016_4020	1	5	CH1_CHIN	2	21	68	68	YES	625	2	chinese	low
2016_4020	4	5	CH1_CHIN	2	22	68	68	YES	665	2	chinese	low
2016_4020	1	5	CH1_CHIN	2	23	68	68	YES	386	2	chinese	low
2016_4020	6	5	CH1_CHIN	2	24	75	75	YES	553	2	chinese	low
2016_4020	6	5	CH1_CHIN	2	25	75	75	YES	434	2	chinese	low
2016_4020	7	5	CH1_CHIN	2	26	75	75	YES	570	2	chinese	low
2016_4020	9	5	CH1_CHIN	2	27	75	75	YES	490	2	chinese	low
2016_4020	6	5	CH1_CHIN	2	28	75	75	YES	498	2	chinese	low
2016_4020	1	5	CH1_CHIN	2	29	68	68	YES	578	2	chinese	low
2016_4020	9	5	CH1_CHIN	2	30	75	75	YES	521	2	chinese	low
2016_4020	2	5	CH1_CHIN	2	31	68	68	YES	505	2	chinese	low
2016_4020	4	5	CH1_CHIN	2	32	68	68	YES	625	2	chinese	low
2016_4020	1	5	CH1_CHIN	2	33	68	68	YES	441	2	chinese	low
2016_4020	3	5	CH1_CHIN	2	34	68	68	YES	569	2	chinese	low
2016_4020	2	5	CH1_CHIN	2	35	68	68	YES	489	2	chinese	low
2016_4020	2	5	CH1_CHIN	2	36	68	68	YES	401	2	chinese	low
2016_4020	7	5	CH1_CHIN	2	37	75	75	YES	578	2	chinese	low
2016_4020	2	5	CH1_CHIN	2	38	68	68	YES	594	2	chinese	low
2016_4020	4	5	CH1_CHIN	2	39	68	68	YES	762	2	chinese	low
2016_4020	1	5	CH1_CHIN	2	40	68	68	YES	418	2	chinese	low
2016_4020	8	5	CH1_CHIN	2	41	75	75	YES	682	2	chinese	low
2016_4020	4	5	CH1_CHIN	2	42	68	68	YES	473	2	chinese	low
2016_4020	8	5	CH1_CHIN	2	43	75	75	YES	873	2	chinese	low
2016_4020	6	5	CH1_CHIN	2	44	75	75	YES	833	2	chinese	low
2016_4020	7	5	CH1_CHIN	2	45	75	75	YES	1073	2	chinese	low
2016_4020	9	5	CH1_CHIN	2	46	75	75	YES	602	2	chinese	low
2016_4020	9	5	CH1_CHIN	2	47	75	75	YES	450	2	chinese	low
2016_4020	3	5	CH1_CHIN	2	48	68	68	YES	649	2	chinese	low
2016_4020	9	5	CH1_CHIN	2	49	75	75	YES	714	2	chinese	low
2016_4020	1	5	CH1_CHIN	2	50	68	68	YES	537	2	chinese	low
2016_4020	4	5	CH1_CHIN	2	51	68	68	YES	625	2	chinese	low
2016_4020	8	5	CH1_CHIN	2	52	75	75	YES	745	2	chinese	low
2016_4020	1	5	CH1_CHIN	2	53	68	68	YES	441	2	chinese	low
2016_4020	9	5	CH1_CHIN	2	54	75	75	YES	608	2	chinese	low
2016_4020	8	5	CH1_CHIN	2	55	75	75	YES	464	2	chinese	low
2016_4020	9	5	CH1_CHIN	2	56	75	75	YES	385	2	chinese	low
2016_4020	8	5	CH1_CHIN	2	57	75	75	YES	441	2	chinese	low
2016_4020	3	5	CH1_CHIN	2	58	68	68	YES	562	2	chinese	low
2016_4020	7	5	CH1_CHIN	2	59	68	75	NO	602	2	chinese	low
2016_4020	4	5	CH1_CHIN	2	60	68	68	YES	761	2	chinese	low
2016_4020	4	5	CH1_CHIN	2	61	68	68	YES	401	2	chinese	low
2016_4020	9	5	CH1_CHIN	2	62	75	75	YES	505	2	chinese	low
2016_4020	3	5	CH1_CHIN	2	63	68	68	YES	761	2	chinese	low
2016_4020	3	5	CH1_CHIN	2	64	68	68	YES	425	2	chinese	low
2016_4020	8	5	CH1_CHIN	2	65	75	75	YES	505	2	chinese	low
2016_4020	3	5	CH1_CHIN	2	66	68	68	YES	473	2	chinese	low
2016_4020	1	5	CH1_CHIN	2	67	68	68	YES	489	2	chinese	low
2016_4020	9	5	CH1_CHIN	2	68	75	75	YES	914	2	chinese	low
2016_4020	4	5	CH1_CHIN	2	69	68	68	YES	665	2	chinese	low
2016_4020	1	5	CH1_CHIN	2	70	68	68	YES	546	2	chinese	low
2016_4020	7	5	CH1_CHIN	2	71	75	75	YES	410	2	chinese	low
2016_4020	1	5	CH1_CHIN	2	72	68	68	YES	378	2	chinese	low
2016_4020	2	5	CH1_CHIN	2	73	68	68	YES	545	2	chinese	low
2016_4020	4	5	CH1_CHIN	2	74	68	68	YES	745	2	chinese	low
2016_4020	4	5	CH1_CHIN	2	75	68	68	YES	457	2	chinese	low
2016_4020	9	5	CH1_CHIN	2	76	75	75	YES	617	2	chinese	low
2016_4020	7	5	CH1_CHIN	2	77	75	75	YES	657	2	chinese	low
2016_4020	8	5	CH1_CHIN	2	78	75	75	YES	465	2	chinese	low
2016_4020	4	5	CH1_CHIN	2	79	75	68	NO	610	2	chinese	low
2016_4020	3	5	CH1_CHIN	2	80	68	68	YES	570	2	chinese	low
2016_4020	2	5	CH1_CHIN	2	81	68	68	YES	442	2	chinese	low
2016_4020	2	5	CH1_CHIN	2	82	68	68	YES	474	2	chinese	low
2016_4020	4	5	CH1_CHIN	2	83	68	68	YES	577	2	chinese	low
2016_4020	1	5	CH1_CHIN	2	84	68	68	YES	529	2	chinese	low
2016_4020	6	5	CH1_CHIN	2	85	75	75	YES	577	2	chinese	low
2016_4020	1	5	CH1_CHIN	2	86	68	68	YES	457	2	chinese	low
2016_4020	4	5	CH1_CHIN	2	87	68	68	YES	617	2	chinese	low
2016_4020	7	5	CH1_CHIN	2	88	75	75	YES	953	2	chinese	low
2016_4020	3	5	CH1_CHIN	2	89	68	68	YES	529	2	chinese	low
2016_4020	1	5	CH1_CHIN	2	90	68	68	YES	626	2	chinese	low
2016_4020	6	5	CH1_CHIN	2	91	75	75	YES	658	2	chinese	low
2016_4020	9	5	CH1_CHIN	2	92	75	75	YES	594	2	chinese	low
2016_4020	3	5	CH1_CHIN	2	93	68	68	YES	585	2	chinese	low
2016_4020	2	5	CH1_CHIN	2	94	68	68	YES	529	2	chinese	low
2016_4020	6	5	CH1_CHIN	2	95	75	75	YES	593	2	chinese	low
2016_4020	3	5	CH1_CHIN	2	96	68	68	YES	489	2	chinese	low
2016_4020	1	5	CH1_CHIN	2	97	68	68	YES	449	2	chinese	low
2016_4020	6	5	CH1_CHIN	2	98	75	75	YES	793	2	chinese	low
2016_4020	2	5	CH1_CHIN	2	99	68	68	YES	497	2	chinese	low
2016_4020	4	5	CH1_CHIN	2	100	75	68	NO	601	2	chinese	low
2016_4020	9	5	CH1_CHIN	2	101	75	75	YES	834	2	chinese	low
2016_4020	2	5	CH1_CHIN	2	102	68	68	YES	418	2	chinese	low
2016_4020	9	5	CH1_CHIN	2	103	75	75	YES	729	2	chinese	low
2016_4020	9	5	CH1_CHIN	2	104	75	75	YES	505	2	chinese	low
2016_4020	4	5	CH1_CHIN	2	105	68	68	YES	753	2	chinese	low
2016_4020	6	5	CH1_CHIN	2	106	75	75	YES	624	2	chinese	low
2016_4020	3	5	CH1_CHIN	2	107	68	68	YES	497	2	chinese	low
2016_4020	6	5	CH1_CHIN	2	108	75	75	YES	609	2	chinese	low
2016_4020	8	5	CH1_CHIN	2	109	75	75	YES	561	2	chinese	low
2016_4020	6	5	CH1_CHIN	2	110	75	75	YES	497	2	chinese	low
2016_4020	6	5	CH1_CHIN	2	111	75	75	YES	609	2	chinese	low
2016_4020	4	5	CH1_CHIN	2	112	68	68	YES	714	2	chinese	low
2016_4020	7	5	CH1_CHIN	2	113	75	75	YES	690	2	chinese	low
2016_4020	4	5	CH1_CHIN	2	114	68	68	YES	561	2	chinese	low
2016_4020	2	5	CH1_CHIN	2	115	68	68	YES	506	2	chinese	low
2016_4020	2	5	CH1_CHIN	2	116	68	68	YES	641	2	chinese	low
2016_4020	7	5	CH1_CHIN	2	117	75	75	YES	562	2	chinese	low
2016_4020	3	5	CH1_CHIN	2	118	68	68	YES	649	2	chinese	low
2016_4020	6	5	CH1_CHIN	2	119	75	75	YES	576	2	chinese	low
2016_4020	2	5	CH1_CHIN	2	120	68	68	YES	1057	2	chinese	low
2016_4020	7	5	CH1_CHIN	3	1	75	75	YES	543	2	chinese	low
2016_4020	9	5	CH1_CHIN	3	2	75	75	YES	448	2	chinese	low
2016_4020	8	5	CH1_CHIN	3	3	75	75	YES	489	2	chinese	low
2016_4020	4	5	CH1_CHIN	3	4	75	68	NO	465	2	chinese	low
2016_4020	7	5	CH1_CHIN	3	5	75	75	YES	728	2	chinese	low
2016_4020	6	5	CH1_CHIN	3	6	75	75	YES	641	2	chinese	low
2016_4020	4	5	CH1_CHIN	3	7	68	68	YES	505	2	chinese	low
2016_4020	6	5	CH1_CHIN	3	8	75	75	YES	449	2	chinese	low
2016_4020	3	5	CH1_CHIN	3	9	68	68	YES	697	2	chinese	low
2016_4020	2	5	CH1_CHIN	3	10	68	68	YES	737	2	chinese	low
2016_4020	1	5	CH1_CHIN	3	11	68	68	YES	467	2	chinese	low
2016_4020	1	5	CH1_CHIN	3	12	68	68	YES	465	2	chinese	low
2016_4020	9	5	CH1_CHIN	3	13	75	75	YES	634	2	chinese	low
2016_4020	9	5	CH1_CHIN	3	14	75	75	YES	465	2	chinese	low
2016_4020	6	5	CH1_CHIN	3	15	75	75	YES	609	2	chinese	low
2016_4020	8	5	CH1_CHIN	3	16	75	75	YES	817	2	chinese	low
2016_4020	4	5	CH1_CHIN	3	17	68	68	YES	625	2	chinese	low
2016_4020	1	5	CH1_CHIN	3	18	68	68	YES	496	2	chinese	low
2016_4020	2	5	CH1_CHIN	3	19	68	68	YES	665	2	chinese	low
2016_4020	1	5	CH1_CHIN	3	20	68	68	YES	441	2	chinese	low
2016_4020	4	5	CH1_CHIN	3	21	68	68	YES	857	2	chinese	low
2016_4020	7	5	CH1_CHIN	3	22	75	75	YES	785	2	chinese	low
2016_4020	8	5	CH1_CHIN	3	23	75	75	YES	682	2	chinese	low
2016_4020	2	5	CH1_CHIN	3	24	68	68	YES	634	2	chinese	low
2016_4020	9	5	CH1_CHIN	3	25	75	75	YES	641	2	chinese	low
2016_4020	2	5	CH1_CHIN	3	26	68	68	YES	593	2	chinese	low
2016_4020	1	5	CH1_CHIN	3	27	68	68	YES	433	2	chinese	low
2016_4020	6	5	CH1_CHIN	3	28	75	75	YES	649	2	chinese	low
2016_4020	8	5	CH1_CHIN	3	29	75	75	YES	513	2	chinese	low
2016_4020	4	5	CH1_CHIN	3	30	68	68	YES	793	2	chinese	low
2016_4020	6	5	CH1_CHIN	3	31	75	75	YES	545	2	chinese	low
2016_4020	8	5	CH1_CHIN	3	32	75	75	YES	561	2	chinese	low
2016_4020	4	5	CH1_CHIN	3	33	68	68	YES	761	2	chinese	low
2016_4020	3	5	CH1_CHIN	3	34	68	68	YES	625	2	chinese	low
2016_4020	6	5	CH1_CHIN	3	35	75	75	YES	575	2	chinese	low
2016_4020	6	5	CH1_CHIN	3	36	75	75	YES	544	2	chinese	low
2016_4020	1	5	CH1_CHIN	3	37	68	68	YES	394	2	chinese	low
2016_4020	7	5	CH1_CHIN	3	38	75	75	YES	473	2	chinese	low
2016_4020	3	5	CH1_CHIN	3	39	68	68	YES	585	2	chinese	low
2016_4020	1	5	CH1_CHIN	3	40	68	68	YES	401	2	chinese	low
2016_4020	8	5	CH1_CHIN	3	41	75	75	YES	529	2	chinese	low
2016_4020	7	5	CH1_CHIN	3	42	68	75	NO	561	2	chinese	low
2016_4020	8	5	CH1_CHIN	3	43	75	75	YES	641	2	chinese	low
2016_4020	7	5	CH1_CHIN	3	44	75	75	YES	489	2	chinese	low
2016_4020	9	5	CH1_CHIN	3	45	75	75	YES	472	2	chinese	low
2016_4020	6	5	CH1_CHIN	3	46	75	75	YES	906	2	chinese	low
2016_4020	6	5	CH1_CHIN	3	47	75	75	YES	432	2	chinese	low
2016_4020	6	5	CH1_CHIN	3	48	75	75	YES	473	2	chinese	low
2016_4020	3	5	CH1_CHIN	3	49	68	68	YES	889	2	chinese	low
2016_4020	2	5	CH1_CHIN	3	50	68	68	YES	657	2	chinese	low
2016_4020	7	5	CH1_CHIN	3	51	75	75	YES	585	2	chinese	low
2016_4020	4	5	CH1_CHIN	3	52	68	68	YES	929	2	chinese	low
2016_4020	4	5	CH1_CHIN	3	53	68	68	YES	481	2	chinese	low
2016_4020	9	5	CH1_CHIN	3	54	75	75	YES	697	2	chinese	low
2016_4020	4	5	CH1_CHIN	3	55	68	68	YES	696	2	chinese	low
2016_4020	8	5	CH1_CHIN	3	56	75	75	YES	913	2	chinese	low
2016_4020	9	5	CH1_CHIN	3	57	75	75	YES	745	2	chinese	low
2016_4020	8	5	CH1_CHIN	3	58	75	75	YES	1209	2	chinese	low
2016_4020	4	5	CH1_CHIN	3	59	68	68	YES	1089	2	chinese	low
2016_4020	2	5	CH1_CHIN	3	60	68	68	YES	1065	2	chinese	low
2016_4020	4	5	CH1_CHIN	3	61	68	68	YES	1433	2	chinese	low
2016_4020	1	5	CH1_CHIN	3	62	68	68	YES	537	2	chinese	low
2016_4020	4	5	CH1_CHIN	3	63	68	68	YES	497	2	chinese	low
2016_4020	7	5	CH1_CHIN	3	64	75	75	YES	577	2	chinese	low
2016_4020	7	5	CH1_CHIN	3	65	75	75	YES	529	2	chinese	low
2016_4020	4	5	CH1_CHIN	3	66	68	68	YES	569	2	chinese	low
2016_4020	7	5	CH1_CHIN	3	67	75	75	YES	633	2	chinese	low
2016_4020	9	5	CH1_CHIN	3	68	75	75	YES	585	2	chinese	low
2016_4020	9	5	CH1_CHIN	3	69	75	75	YES	569	2	chinese	low
2016_4020	6	5	CH1_CHIN	3	70	75	75	YES	888	2	chinese	low
2016_4020	7	5	CH1_CHIN	3	71	75	75	YES	441	2	chinese	low
2016_4020	2	5	CH1_CHIN	3	72	68	68	YES	513	2	chinese	low
2016_4020	2	5	CH1_CHIN	3	73	68	68	YES	561	2	chinese	low
2016_4020	1	5	CH1_CHIN	3	74	68	68	YES	520	2	chinese	low
2016_4020	2	5	CH1_CHIN	3	75	68	68	YES	529	2	chinese	low
2016_4020	1	5	CH1_CHIN	3	76	68	68	YES	497	2	chinese	low
2016_4020	1	5	CH1_CHIN	3	77	68	68	YES	521	2	chinese	low
2016_4020	7	5	CH1_CHIN	3	78	75	75	YES	513	2	chinese	low
2016_4020	7	5	CH1_CHIN	3	79	75	75	YES	385	2	chinese	low
2016_4020	6	5	CH1_CHIN	3	80	75	75	YES	473	2	chinese	low
2016_4020	9	5	CH1_CHIN	3	81	75	75	YES	585	2	chinese	low
2016_4020	2	5	CH1_CHIN	3	82	68	68	YES	545	2	chinese	low
2016_4020	8	5	CH1_CHIN	3	83	75	75	YES	497	2	chinese	low
2016_4020	4	5	CH1_CHIN	3	84	68	68	YES	1089	2	chinese	low
2016_4020	3	5	CH1_CHIN	3	85	68	68	YES	496	2	chinese	low
2016_4020	7	5	CH1_CHIN	3	86	75	75	YES	649	2	chinese	low
2016_4020	8	5	CH1_CHIN	3	87	75	75	YES	714	2	chinese	low
2016_4020	4	5	CH1_CHIN	3	88	68	68	YES	712	2	chinese	low
2016_4020	8	5	CH1_CHIN	3	89	75	75	YES	561	2	chinese	low
2016_4020	1	5	CH1_CHIN	3	90	68	68	YES	505	2	chinese	low
2016_4020	8	5	CH1_CHIN	3	91	75	75	YES	505	2	chinese	low
2016_4020	4	5	CH1_CHIN	3	92	68	68	YES	401	2	chinese	low
2016_4020	3	5	CH1_CHIN	3	93	68	68	YES	569	2	chinese	low
2016_4020	1	5	CH1_CHIN	3	94	68	68	YES	785	2	chinese	low
2016_4020	7	5	CH1_CHIN	3	95	75	75	YES	912	2	chinese	low
2016_4020	3	5	CH1_CHIN	3	96	68	68	YES	552	2	chinese	low
2016_4020	2	5	CH1_CHIN	3	97	68	68	YES	449	2	chinese	low
2016_4020	8	5	CH1_CHIN	3	98	75	75	YES	577	2	chinese	low
2016_4020	4	5	CH1_CHIN	3	99	68	68	YES	784	2	chinese	low
2016_4020	9	5	CH1_CHIN	3	100	75	75	YES	560	2	chinese	low
2016_4020	7	5	CH1_CHIN	3	101	75	75	YES	889	2	chinese	low
2016_4020	4	5	CH1_CHIN	3	102	68	68	YES	769	2	chinese	low
2016_4020	4	5	CH1_CHIN	3	103	68	68	YES	569	2	chinese	low
2016_4020	6	5	CH1_CHIN	3	104	75	75	YES	633	2	chinese	low
2016_4020	4	5	CH1_CHIN	3	105	68	68	YES	545	2	chinese	low
2016_4020	7	5	CH1_CHIN	3	106	75	75	YES	401	2	chinese	low
2016_4020	9	5	CH1_CHIN	3	107	68	75	NO	400	2	chinese	low
2016_4020	9	5	CH1_CHIN	3	108	75	75	YES	529	2	chinese	low
2016_4020	2	5	CH1_CHIN	3	109	68	68	YES	617	2	chinese	low
2016_4020	1	5	CH1_CHIN	3	110	68	68	YES	729	2	chinese	low
2016_4020	8	5	CH1_CHIN	3	111	75	75	YES	625	2	chinese	low
2016_4020	6	5	CH1_CHIN	3	112	75	75	YES	697	2	chinese	low
2016_4020	9	5	CH1_CHIN	3	113	75	75	YES	593	2	chinese	low
2016_4020	6	5	CH1_CHIN	3	114	75	75	YES	569	2	chinese	low
2016_4020	1	5	CH1_CHIN	3	115	68	68	YES	441	2	chinese	low
2016_4020	3	5	CH1_CHIN	3	116	68	68	YES	976	2	chinese	low
2016_4020	8	5	CH1_CHIN	3	117	75	75	YES	873	2	chinese	low
2016_4020	3	5	CH1_CHIN	3	118	68	68	YES	728	2	chinese	low
2016_4020	8	5	CH1_CHIN	3	119	75	75	YES	609	2	chinese	low
2016_4020	4	5	CH1_CHIN	3	120	68	68	YES	553	2	chinese	low
2016_4020	8	5	CH1_CHIN	4	1	75	75	YES	502	2	chinese	low
2016_4020	4	5	CH1_CHIN	4	2	68	68	YES	513	2	chinese	low
2016_4020	1	5	CH1_CHIN	4	3	68	68	YES	545	2	chinese	low
2016_4020	2	5	CH1_CHIN	4	4	68	68	YES	449	2	chinese	low
2016_4020	3	5	CH1_CHIN	4	5	68	68	YES	457	2	chinese	low
2016_4020	6	5	CH1_CHIN	4	6	75	75	YES	488	2	chinese	low
2016_4020	3	5	CH1_CHIN	4	7	68	68	YES	392	2	chinese	low
2016_4020	8	5	CH1_CHIN	4	8	75	75	YES	504	2	chinese	low
2016_4020	4	5	CH1_CHIN	4	9	68	68	YES	441	2	chinese	low
2016_4020	7	5	CH1_CHIN	4	10	75	75	YES	513	2	chinese	low
2016_4020	2	5	CH1_CHIN	4	11	68	68	YES	441	2	chinese	low
2016_4020	8	5	CH1_CHIN	4	12	75	75	YES	513	2	chinese	low
2016_4020	8	5	CH1_CHIN	4	13	68	75	NO	345	2	chinese	low
2016_4020	3	5	CH1_CHIN	4	14	68	68	YES	553	2	chinese	low
2016_4020	6	5	CH1_CHIN	4	15	75	75	YES	673	2	chinese	low
2016_4020	9	5	CH1_CHIN	4	16	75	75	YES	496	2	chinese	low
2016_4020	2	5	CH1_CHIN	4	17	68	68	YES	601	2	chinese	low
2016_4020	1	5	CH1_CHIN	4	18	68	68	YES	504	2	chinese	low
2016_4020	2	5	CH1_CHIN	4	19	68	68	YES	488	2	chinese	low
2016_4020	9	5	CH1_CHIN	4	20	75	75	YES	425	2	chinese	low
2016_4020	9	5	CH1_CHIN	4	21	75	75	YES	465	2	chinese	low
2016_4020	1	5	CH1_CHIN	4	22	68	68	YES	497	2	chinese	low
2016_4020	3	5	CH1_CHIN	4	23	68	68	YES	793	2	chinese	low
2016_4020	7	5	CH1_CHIN	4	24	75	75	YES	569	2	chinese	low
2016_4020	8	5	CH1_CHIN	4	25	75	75	YES	657	2	chinese	low
2016_4020	4	5	CH1_CHIN	4	26	68	68	YES	681	2	chinese	low
2016_4020	9	5	CH1_CHIN	4	27	75	75	YES	744	2	chinese	low
2016_4020	6	5	CH1_CHIN	4	28	75	75	YES	713	2	chinese	low
2016_4020	1	5	CH1_CHIN	4	29	68	68	YES	584	2	chinese	low
2016_4020	1	5	CH1_CHIN	4	30	68	68	YES	464	2	chinese	low
2016_4020	9	5	CH1_CHIN	4	31	75	75	YES	568	2	chinese	low
2016_4020	8	5	CH1_CHIN	4	32	75	75	YES	521	2	chinese	low
2016_4020	3	5	CH1_CHIN	4	33	68	68	YES	639	2	chinese	low
2016_4020	7	5	CH1_CHIN	4	34	75	75	YES	657	2	chinese	low
2016_4020	6	5	CH1_CHIN	4	35	75	75	YES	601	2	chinese	low
2016_4020	2	5	CH1_CHIN	4	36	68	68	YES	481	2	chinese	low
2016_4020	8	5	CH1_CHIN	4	37	75	75	YES	529	2	chinese	low
2016_4020	4	5	CH1_CHIN	4	38	75	68	NO	560	2	chinese	low
2016_4020	8	5	CH1_CHIN	4	39	75	75	YES	600	2	chinese	low
2016_4020	2	5	CH1_CHIN	4	40	68	68	YES	464	2	chinese	low
2016_4020	7	5	CH1_CHIN	4	41	75	75	YES	528	2	chinese	low
2016_4020	8	5	CH1_CHIN	4	42	75	75	YES	488	2	chinese	low
2016_4020	1	5	CH1_CHIN	4	43	68	68	YES	672	2	chinese	low
2016_4020	4	5	CH1_CHIN	4	44	68	68	YES	1185	2	chinese	low
2016_4020	1	5	CH1_CHIN	4	45	68	68	YES	593	2	chinese	low
2016_4020	3	5	CH1_CHIN	4	46	68	68	YES	473	2	chinese	low
2016_4020	4	5	CH1_CHIN	4	47	68	68	YES	609	2	chinese	low
2016_4020	7	5	CH1_CHIN	4	48	75	75	YES	552	2	chinese	low
2016_4020	2	5	CH1_CHIN	4	49	68	68	YES	576	2	chinese	low
2016_4020	7	5	CH1_CHIN	4	50	75	75	YES	536	2	chinese	low
2016_4020	4	5	CH1_CHIN	4	51	68	68	YES	752	2	chinese	low
2016_4020	8	5	CH1_CHIN	4	52	68	75	NO	904	2	chinese	low
2016_4020	6	5	CH1_CHIN	4	53	75	75	YES	664	2	chinese	low
2016_4020	9	5	CH1_CHIN	4	54	75	75	YES	409	2	chinese	low
2016_4020	8	5	CH1_CHIN	4	55	75	75	YES	489	2	chinese	low
2016_4020	3	5	CH1_CHIN	4	56	68	68	YES	649	2	chinese	low
2016_4020	2	5	CH1_CHIN	4	57	68	68	YES	881	2	chinese	low
2016_4020	7	5	CH1_CHIN	4	58	75	75	YES	672	2	chinese	low
2016_4020	6	5	CH1_CHIN	4	59	75	75	YES	729	2	chinese	low
2016_4020	7	5	CH1_CHIN	4	60	75	75	YES	384	2	chinese	low
2016_4020	9	5	CH1_CHIN	4	61	75	75	YES	456	2	chinese	low
2016_4020	7	5	CH1_CHIN	4	62	75	75	YES	424	2	chinese	low
2016_4020	2	5	CH1_CHIN	4	63	68	68	YES	616	2	chinese	low
2016_4020	4	5	CH1_CHIN	4	64	68	68	YES	545	2	chinese	low
2016_4020	4	5	CH1_CHIN	4	65	68	68	YES	480	2	chinese	low
2016_4020	3	5	CH1_CHIN	4	66	68	68	YES	593	2	chinese	low
2016_4020	7	5	CH1_CHIN	4	67	68	75	NO	697	2	chinese	low
2016_4020	9	5	CH1_CHIN	4	68	75	75	YES	481	2	chinese	low
2016_4020	3	5	CH1_CHIN	4	69	NA	68	NO	NA	2	chinese	low
2016_4020	9	5	CH1_CHIN	4	70	75	75	YES	1492	2	chinese	low
2016_4020	1	5	CH1_CHIN	4	71	68	68	YES	456	2	chinese	low
2016_4020	1	5	CH1_CHIN	4	72	68	68	YES	456	2	chinese	low
2016_4020	9	5	CH1_CHIN	4	73	75	75	YES	544	2	chinese	low
2016_4020	6	5	CH1_CHIN	4	74	75	75	YES	593	2	chinese	low
2016_4020	9	5	CH1_CHIN	4	75	75	75	YES	417	2	chinese	low
2016_4020	7	5	CH1_CHIN	4	76	75	75	YES	385	2	chinese	low
2016_4020	2	5	CH1_CHIN	4	77	68	68	YES	697	2	chinese	low
2016_4020	6	5	CH1_CHIN	4	78	75	75	YES	520	2	chinese	low
2016_4020	6	5	CH1_CHIN	4	79	75	75	YES	457	2	chinese	low
2016_4020	2	5	CH1_CHIN	4	80	68	68	YES	735	2	chinese	low
2016_4020	2	5	CH1_CHIN	4	81	68	68	YES	472	2	chinese	low
2016_4020	6	5	CH1_CHIN	4	82	75	75	YES	632	2	chinese	low
2016_4020	3	5	CH1_CHIN	4	83	68	68	YES	664	2	chinese	low
2016_4020	8	5	CH1_CHIN	4	84	68	75	NO	568	2	chinese	low
2016_4020	1	5	CH1_CHIN	4	85	68	68	YES	593	2	chinese	low
2016_4020	8	5	CH1_CHIN	4	86	75	75	YES	625	2	chinese	low
2016_4020	4	5	CH1_CHIN	4	87	68	68	YES	593	2	chinese	low
2016_4020	1	5	CH1_CHIN	4	88	68	68	YES	529	2	chinese	low
2016_4020	7	5	CH1_CHIN	4	89	75	75	YES	504	2	chinese	low
2016_4020	2	5	CH1_CHIN	4	90	68	68	YES	440	2	chinese	low
2016_4020	6	5	CH1_CHIN	4	91	75	75	YES	488	2	chinese	low
2016_4020	3	5	CH1_CHIN	4	92	68	68	YES	928	2	chinese	low
2016_4020	3	5	CH1_CHIN	4	93	68	68	YES	592	2	chinese	low
2016_4020	1	5	CH1_CHIN	4	94	68	68	YES	456	2	chinese	low
2016_4020	7	5	CH1_CHIN	4	95	75	75	YES	744	2	chinese	low
2016_4020	6	5	CH1_CHIN	4	96	75	75	YES	633	2	chinese	low
2016_4020	6	5	CH1_CHIN	4	97	75	75	YES	521	2	chinese	low
2016_4020	6	5	CH1_CHIN	4	98	75	75	YES	465	2	chinese	low
2016_4020	1	5	CH1_CHIN	4	99	68	68	YES	712	2	chinese	low
2016_4020	6	5	CH1_CHIN	4	100	75	75	YES	1184	2	chinese	low
2016_4020	1	5	CH1_CHIN	4	101	68	68	YES	424	2	chinese	low
2016_4020	7	5	CH1_CHIN	4	102	75	75	YES	423	2	chinese	low
2016_4020	8	5	CH1_CHIN	4	103	75	75	YES	464	2	chinese	low
2016_4020	9	5	CH1_CHIN	4	104	75	75	YES	456	2	chinese	low
2016_4020	3	5	CH1_CHIN	4	105	68	68	YES	648	2	chinese	low
2016_4020	7	5	CH1_CHIN	4	106	75	75	YES	496	2	chinese	low
2016_4020	6	5	CH1_CHIN	4	107	75	75	YES	433	2	chinese	low
2016_4020	2	5	CH1_CHIN	4	108	68	68	YES	745	2	chinese	low
2016_4020	1	5	CH1_CHIN	4	109	68	68	YES	641	2	chinese	low
2016_4020	4	5	CH1_CHIN	4	110	75	68	NO	505	2	chinese	low
2016_4020	9	5	CH1_CHIN	4	111	68	75	NO	960	2	chinese	low
2016_4020	7	5	CH1_CHIN	4	112	75	75	YES	496	2	chinese	low
2016_4020	7	5	CH1_CHIN	4	113	75	75	YES	376	2	chinese	low
2016_4020	9	5	CH1_CHIN	4	114	75	75	YES	488	2	chinese	low
2016_4020	8	5	CH1_CHIN	4	115	75	75	YES	496	2	chinese	low
2016_4020	3	5	CH1_CHIN	4	116	68	68	YES	592	2	chinese	low
2016_4020	1	5	CH1_CHIN	4	117	68	68	YES	552	2	chinese	low
2016_4020	8	5	CH1_CHIN	4	118	75	75	YES	688	2	chinese	low
2016_4020	4	5	CH1_CHIN	4	119	75	68	NO	401	2	chinese	low
2016_4020	4	5	CH1_CHIN	4	120	68	68	YES	497	2	chinese	low
2016_4020	3	5	CH1_CHIN	5	1	68	68	YES	974	2	chinese	low
2016_4020	2	5	CH1_CHIN	5	2	68	68	YES	464	2	chinese	low
2016_4020	6	5	CH1_CHIN	5	3	75	75	YES	392	2	chinese	low
2016_4020	9	5	CH1_CHIN	5	4	75	75	YES	440	2	chinese	low
2016_4020	2	5	CH1_CHIN	5	5	68	68	YES	448	2	chinese	low
2016_4020	8	5	CH1_CHIN	5	6	75	75	YES	1024	2	chinese	low
2016_4020	2	5	CH1_CHIN	5	7	68	68	YES	528	2	chinese	low
2016_4020	6	5	CH1_CHIN	5	8	75	75	YES	625	2	chinese	low
2016_4020	3	5	CH1_CHIN	5	9	68	68	YES	697	2	chinese	low
2016_4020	3	5	CH1_CHIN	5	10	68	68	YES	608	2	chinese	low
2016_4020	4	5	CH1_CHIN	5	11	68	68	YES	664	2	chinese	low
2016_4020	1	5	CH1_CHIN	5	12	68	68	YES	472	2	chinese	low
2016_4020	8	5	CH1_CHIN	5	13	75	75	YES	672	2	chinese	low
2016_4020	2	5	CH1_CHIN	5	14	68	68	YES	656	2	chinese	low
2016_4020	9	5	CH1_CHIN	5	15	75	75	YES	568	2	chinese	low
2016_4020	1	5	CH1_CHIN	5	16	68	68	YES	600	2	chinese	low
2016_4020	1	5	CH1_CHIN	5	17	68	68	YES	464	2	chinese	low
2016_4020	8	5	CH1_CHIN	5	18	75	75	YES	488	2	chinese	low
2016_4020	8	5	CH1_CHIN	5	19	75	75	YES	505	2	chinese	low
2016_4020	6	5	CH1_CHIN	5	20	68	75	NO	568	2	chinese	low
2016_4020	9	5	CH1_CHIN	5	21	75	75	YES	835	2	chinese	low
2016_4020	9	5	CH1_CHIN	5	22	75	75	YES	431	2	chinese	low
2016_4020	3	5	CH1_CHIN	5	23	68	68	YES	528	2	chinese	low
2016_4020	8	5	CH1_CHIN	5	24	75	75	YES	784	2	chinese	low
2016_4020	3	5	CH1_CHIN	5	25	68	68	YES	808	2	chinese	low
2016_4020	6	5	CH1_CHIN	5	26	75	75	YES	608	2	chinese	low
2016_4020	8	5	CH1_CHIN	5	27	75	75	YES	448	2	chinese	low
2016_4020	2	5	CH1_CHIN	5	28	68	68	YES	544	2	chinese	low
2016_4020	1	5	CH1_CHIN	5	29	68	68	YES	433	2	chinese	low
2016_4020	7	5	CH1_CHIN	5	30	75	75	YES	505	2	chinese	low
2016_4020	9	5	CH1_CHIN	5	31	75	75	YES	569	2	chinese	low
2016_4020	3	5	CH1_CHIN	5	32	68	68	YES	561	2	chinese	low
2016_4020	3	5	CH1_CHIN	5	33	68	68	YES	656	2	chinese	low
2016_4020	1	5	CH1_CHIN	5	34	68	68	YES	448	2	chinese	low
2016_4020	2	5	CH1_CHIN	5	35	68	68	YES	512	2	chinese	low
2016_4020	9	5	CH1_CHIN	5	36	75	75	YES	472	2	chinese	low
2016_4020	7	5	CH1_CHIN	5	37	75	75	YES	616	2	chinese	low
2016_4020	3	5	CH1_CHIN	5	38	68	68	YES	544	2	chinese	low
2016_4020	6	5	CH1_CHIN	5	39	75	75	YES	528	2	chinese	low
2016_4020	3	5	CH1_CHIN	5	40	68	68	YES	656	2	chinese	low
2016_4020	2	5	CH1_CHIN	5	41	68	68	YES	600	2	chinese	low
2016_4020	7	5	CH1_CHIN	5	42	75	75	YES	551	2	chinese	low
2016_4020	2	5	CH1_CHIN	5	43	68	68	YES	504	2	chinese	low
2016_4020	3	5	CH1_CHIN	5	44	68	68	YES	584	2	chinese	low
2016_4020	1	5	CH1_CHIN	5	45	68	68	YES	480	2	chinese	low
2016_4020	7	5	CH1_CHIN	5	46	75	75	YES	528	2	chinese	low
2016_4020	3	5	CH1_CHIN	5	47	68	68	YES	576	2	chinese	low
2016_4020	4	5	CH1_CHIN	5	48	68	68	YES	592	2	chinese	low
2016_4020	7	5	CH1_CHIN	5	49	75	75	YES	744	2	chinese	low
2016_4020	3	5	CH1_CHIN	5	50	68	68	YES	448	2	chinese	low
2016_4020	3	5	CH1_CHIN	5	51	68	68	YES	465	2	chinese	low
2016_4020	4	5	CH1_CHIN	5	52	68	68	YES	607	2	chinese	low
2016_4020	1	5	CH1_CHIN	5	53	68	68	YES	560	2	chinese	low
2016_4020	6	5	CH1_CHIN	5	54	75	75	YES	608	2	chinese	low
2016_4020	6	5	CH1_CHIN	5	55	75	75	YES	624	2	chinese	low
2016_4020	3	5	CH1_CHIN	5	56	68	68	YES	832	2	chinese	low
2016_4020	6	5	CH1_CHIN	5	57	75	75	YES	512	2	chinese	low
2016_4020	1	5	CH1_CHIN	5	58	68	68	YES	528	2	chinese	low
2016_4020	4	5	CH1_CHIN	5	59	75	68	NO	520	2	chinese	low
2016_4020	6	5	CH1_CHIN	5	60	75	75	YES	592	2	chinese	low
2016_4020	6	5	CH1_CHIN	5	61	75	75	YES	520	2	chinese	low
2016_4020	2	5	CH1_CHIN	5	62	68	68	YES	465	2	chinese	low
2016_4020	1	5	CH1_CHIN	5	63	68	68	YES	489	2	chinese	low
2016_4020	2	5	CH1_CHIN	5	64	68	68	YES	455	2	chinese	low
2016_4020	3	5	CH1_CHIN	5	65	68	68	YES	440	2	chinese	low
2016_4020	2	5	CH1_CHIN	5	66	68	68	YES	464	2	chinese	low
2016_4020	7	5	CH1_CHIN	5	67	75	75	YES	680	2	chinese	low
2016_4020	2	5	CH1_CHIN	5	68	68	68	YES	920	2	chinese	low
2016_4020	7	5	CH1_CHIN	5	69	75	75	YES	520	2	chinese	low
2016_4020	8	5	CH1_CHIN	5	70	75	75	YES	616	2	chinese	low
2016_4020	8	5	CH1_CHIN	5	71	75	75	YES	537	2	chinese	low
2016_4020	4	5	CH1_CHIN	5	72	68	68	YES	585	2	chinese	low
2016_4020	1	5	CH1_CHIN	5	73	68	68	YES	503	2	chinese	low
2016_4020	3	5	CH1_CHIN	5	74	68	68	YES	544	2	chinese	low
2016_4020	3	5	CH1_CHIN	5	75	68	68	YES	440	2	chinese	low
2016_4020	8	5	CH1_CHIN	5	76	75	75	YES	543	2	chinese	low
2016_4020	9	5	CH1_CHIN	5	77	75	75	YES	464	2	chinese	low
2016_4020	8	5	CH1_CHIN	5	78	75	75	YES	504	2	chinese	low
2016_4020	3	5	CH1_CHIN	5	79	68	68	YES	488	2	chinese	low
2016_4020	3	5	CH1_CHIN	5	80	68	68	YES	544	2	chinese	low
2016_4020	8	5	CH1_CHIN	5	81	75	75	YES	544	2	chinese	low
2016_4020	3	5	CH1_CHIN	5	82	68	68	YES	592	2	chinese	low
2016_4020	2	5	CH1_CHIN	5	83	68	68	YES	488	2	chinese	low
2016_4020	4	5	CH1_CHIN	5	84	68	68	YES	759	2	chinese	low
2016_4020	9	5	CH1_CHIN	5	85	75	75	YES	736	2	chinese	low
2016_4020	9	5	CH1_CHIN	5	86	75	75	YES	480	2	chinese	low
2016_4020	7	5	CH1_CHIN	5	87	75	75	YES	407	2	chinese	low
2016_4020	8	5	CH1_CHIN	5	88	75	75	YES	456	2	chinese	low
2016_4020	1	5	CH1_CHIN	5	89	68	68	YES	568	2	chinese	low
2016_4020	7	5	CH1_CHIN	5	90	75	75	YES	616	2	chinese	low
2016_4020	3	5	CH1_CHIN	5	91	68	68	YES	488	2	chinese	low
2016_4020	9	5	CH1_CHIN	5	92	75	75	YES	600	2	chinese	low
2016_4020	2	5	CH1_CHIN	5	93	68	68	YES	488	2	chinese	low
2016_4020	8	5	CH1_CHIN	5	94	75	75	YES	664	2	chinese	low
2016_4020	2	5	CH1_CHIN	5	95	68	68	YES	487	2	chinese	low
2016_4020	7	5	CH1_CHIN	5	96	75	75	YES	608	2	chinese	low
2016_4020	7	5	CH1_CHIN	5	97	75	75	YES	496	2	chinese	low
2016_4020	9	5	CH1_CHIN	5	98	75	75	YES	456	2	chinese	low
2016_4020	7	5	CH1_CHIN	5	99	75	75	YES	432	2	chinese	low
2016_4020	1	5	CH1_CHIN	5	100	68	68	YES	488	2	chinese	low
2016_4020	6	5	CH1_CHIN	5	101	75	75	YES	424	2	chinese	low
2016_4020	2	5	CH1_CHIN	5	102	68	68	YES	776	2	chinese	low
2016_4020	8	5	CH1_CHIN	5	103	75	75	YES	488	2	chinese	low
2016_4020	4	5	CH1_CHIN	5	104	75	68	NO	370	2	chinese	low
2016_4020	7	5	CH1_CHIN	5	105	75	75	YES	639	2	chinese	low
2016_4020	2	5	CH1_CHIN	5	106	68	68	YES	591	2	chinese	low
2016_4020	9	5	CH1_CHIN	5	107	75	75	YES	511	2	chinese	low
2016_4020	8	5	CH1_CHIN	5	108	75	75	YES	528	2	chinese	low
2016_4020	9	5	CH1_CHIN	5	109	75	75	YES	503	2	chinese	low
2016_4020	8	5	CH1_CHIN	5	110	75	75	YES	608	2	chinese	low
2016_4020	7	5	CH1_CHIN	5	111	75	75	YES	824	2	chinese	low
2016_4020	7	5	CH1_CHIN	5	112	75	75	YES	536	2	chinese	low
2016_4020	6	5	CH1_CHIN	5	113	75	75	YES	728	2	chinese	low
2016_4020	1	5	CH1_CHIN	5	114	68	68	YES	712	2	chinese	low
2016_4020	8	5	CH1_CHIN	5	115	75	75	YES	960	2	chinese	low
2016_4020	9	5	CH1_CHIN	5	116	75	75	YES	535	2	chinese	low
2016_4020	6	5	CH1_CHIN	5	117	75	75	YES	607	2	chinese	low
2016_4020	7	5	CH1_CHIN	5	118	75	75	YES	504	2	chinese	low
2016_4020	1	5	CH1_CHIN	5	119	68	68	YES	592	2	chinese	low
2016_4020	3	5	CH1_CHIN	5	120	68	68	YES	592	2	chinese	low
2938_4022	2	5	CH1_CHIN	1	1	68	68	YES	692	2	chinese	low
2938_4022	1	5	CH1_CHIN	1	2	68	68	YES	423	2	chinese	low
2938_4022	4	5	CH1_CHIN	1	3	75	68	NO	473	2	chinese	low
2938_4022	3	5	CH1_CHIN	1	4	68	68	YES	455	2	chinese	low
2938_4022	7	5	CH1_CHIN	1	5	75	75	YES	512	2	chinese	low
2938_4022	6	5	CH1_CHIN	1	6	75	75	YES	711	2	chinese	low
2938_4022	8	5	CH1_CHIN	1	7	75	75	YES	369	2	chinese	low
2938_4022	9	5	CH1_CHIN	1	8	75	75	YES	367	2	chinese	low
2938_4022	6	5	CH1_CHIN	2	1	75	75	YES	448	2	chinese	low
2938_4022	1	5	CH1_CHIN	2	2	68	68	YES	432	2	chinese	low
2938_4022	7	5	CH1_CHIN	2	3	75	75	YES	392	2	chinese	low
2938_4022	7	5	CH1_CHIN	2	4	75	75	YES	383	2	chinese	low
2938_4022	1	5	CH1_CHIN	2	5	68	68	YES	441	2	chinese	low
2938_4022	7	5	CH1_CHIN	2	6	75	75	YES	432	2	chinese	low
2938_4022	4	5	CH1_CHIN	2	7	68	68	YES	472	2	chinese	low
2938_4022	9	5	CH1_CHIN	2	8	75	75	YES	408	2	chinese	low
2938_4022	9	5	CH1_CHIN	2	9	75	75	YES	360	2	chinese	low
2938_4022	4	5	CH1_CHIN	2	10	68	68	YES	624	2	chinese	low
2938_4022	2	5	CH1_CHIN	2	11	68	68	YES	375	2	chinese	low
2938_4022	8	5	CH1_CHIN	2	12	75	75	YES	389	2	chinese	low
2938_4022	8	5	CH1_CHIN	2	13	75	75	YES	344	2	chinese	low
2938_4022	4	5	CH1_CHIN	2	14	75	68	NO	382	2	chinese	low
2938_4022	2	5	CH1_CHIN	2	15	68	68	YES	425	2	chinese	low
2938_4022	6	5	CH1_CHIN	2	16	75	75	YES	486	2	chinese	low
2938_4022	8	5	CH1_CHIN	2	17	75	75	YES	601	2	chinese	low
2938_4022	8	5	CH1_CHIN	2	18	75	75	YES	440	2	chinese	low
2938_4022	7	5	CH1_CHIN	2	19	75	75	YES	456	2	chinese	low
2938_4022	8	5	CH1_CHIN	2	20	75	75	YES	680	2	chinese	low
2938_4022	9	5	CH1_CHIN	2	21	75	75	YES	439	2	chinese	low
2938_4022	4	5	CH1_CHIN	2	22	68	68	YES	640	2	chinese	low
2938_4022	9	5	CH1_CHIN	2	23	75	75	YES	543	2	chinese	low
2938_4022	8	5	CH1_CHIN	2	24	75	75	YES	463	2	chinese	low
2938_4022	3	5	CH1_CHIN	2	25	68	68	YES	504	2	chinese	low
2938_4022	7	5	CH1_CHIN	2	26	75	75	YES	392	2	chinese	low
2938_4022	3	5	CH1_CHIN	2	27	68	68	YES	472	2	chinese	low
2938_4022	1	5	CH1_CHIN	2	28	68	68	YES	415	2	chinese	low
2938_4022	6	5	CH1_CHIN	2	29	75	75	YES	481	2	chinese	low
2938_4022	2	5	CH1_CHIN	2	30	68	68	YES	367	2	chinese	low
2938_4022	6	5	CH1_CHIN	2	31	75	75	YES	353	2	chinese	low
2938_4022	6	5	CH1_CHIN	2	32	75	75	YES	455	2	chinese	low
2938_4022	2	5	CH1_CHIN	2	33	68	68	YES	449	2	chinese	low
2938_4022	4	5	CH1_CHIN	2	34	75	68	NO	383	2	chinese	low
2938_4022	6	5	CH1_CHIN	2	35	75	75	YES	488	2	chinese	low
2938_4022	3	5	CH1_CHIN	2	36	68	68	YES	439	2	chinese	low
2938_4022	3	5	CH1_CHIN	2	37	68	68	YES	463	2	chinese	low
2938_4022	1	5	CH1_CHIN	2	38	68	68	YES	359	2	chinese	low
2938_4022	4	5	CH1_CHIN	2	39	68	68	YES	695	2	chinese	low
2938_4022	6	5	CH1_CHIN	2	40	75	75	YES	504	2	chinese	low
2938_4022	3	5	CH1_CHIN	2	41	68	68	YES	446	2	chinese	low
2938_4022	4	5	CH1_CHIN	2	42	68	68	YES	553	2	chinese	low
2938_4022	4	5	CH1_CHIN	2	43	68	68	YES	424	2	chinese	low
2938_4022	2	5	CH1_CHIN	2	44	68	68	YES	496	2	chinese	low
2938_4022	1	5	CH1_CHIN	2	45	68	68	YES	471	2	chinese	low
2938_4022	7	5	CH1_CHIN	2	46	75	75	YES	511	2	chinese	low
2938_4022	4	5	CH1_CHIN	2	47	68	68	YES	430	2	chinese	low
2938_4022	3	5	CH1_CHIN	2	48	68	68	YES	351	2	chinese	low
2938_4022	6	5	CH1_CHIN	2	49	75	75	YES	335	2	chinese	low
2938_4022	9	5	CH1_CHIN	2	50	75	75	YES	496	2	chinese	low
2938_4022	6	5	CH1_CHIN	2	51	75	75	YES	319	2	chinese	low
2938_4022	7	5	CH1_CHIN	2	52	75	75	YES	352	2	chinese	low
2938_4022	6	5	CH1_CHIN	2	53	75	75	YES	343	2	chinese	low
2938_4022	6	5	CH1_CHIN	2	54	75	75	YES	504	2	chinese	low
2938_4022	2	5	CH1_CHIN	2	55	68	68	YES	351	2	chinese	low
2938_4022	3	5	CH1_CHIN	2	56	68	68	YES	448	2	chinese	low
2938_4022	1	5	CH1_CHIN	2	57	68	68	YES	391	2	chinese	low
2938_4022	3	5	CH1_CHIN	2	58	68	68	YES	487	2	chinese	low
2938_4022	7	5	CH1_CHIN	2	59	75	75	YES	463	2	chinese	low
2938_4022	3	5	CH1_CHIN	2	60	68	68	YES	728	2	chinese	low
2938_4022	7	5	CH1_CHIN	2	61	75	75	YES	617	2	chinese	low
2938_4022	4	5	CH1_CHIN	2	62	68	68	YES	527	2	chinese	low
2938_4022	3	5	CH1_CHIN	2	63	68	68	YES	559	2	chinese	low
2938_4022	3	5	CH1_CHIN	2	64	68	68	YES	371	2	chinese	low
2938_4022	9	5	CH1_CHIN	2	65	75	75	YES	576	2	chinese	low
2938_4022	1	5	CH1_CHIN	2	66	68	68	YES	457	2	chinese	low
2938_4022	7	5	CH1_CHIN	2	67	75	75	YES	1024	2	chinese	low
2938_4022	9	5	CH1_CHIN	2	68	75	75	YES	446	2	chinese	low
2938_4022	2	5	CH1_CHIN	2	69	68	68	YES	448	2	chinese	low
2938_4022	2	5	CH1_CHIN	2	70	68	68	YES	407	2	chinese	low
2938_4022	4	5	CH1_CHIN	2	71	68	68	YES	736	2	chinese	low
2938_4022	7	5	CH1_CHIN	2	72	75	75	YES	423	2	chinese	low
2938_4022	4	5	CH1_CHIN	2	73	68	68	YES	560	2	chinese	low
2938_4022	6	5	CH1_CHIN	2	74	75	75	YES	464	2	chinese	low
2938_4022	8	5	CH1_CHIN	2	75	75	75	YES	504	2	chinese	low
2938_4022	2	5	CH1_CHIN	2	76	68	68	YES	503	2	chinese	low
2938_4022	7	5	CH1_CHIN	2	77	75	75	YES	561	2	chinese	low
2938_4022	2	5	CH1_CHIN	2	78	75	68	NO	351	2	chinese	low
2938_4022	4	5	CH1_CHIN	2	79	68	68	YES	336	2	chinese	low
2938_4022	7	5	CH1_CHIN	2	80	75	75	YES	527	2	chinese	low
2938_4022	1	5	CH1_CHIN	2	81	68	68	YES	336	2	chinese	low
2938_4022	2	5	CH1_CHIN	2	82	68	68	YES	383	2	chinese	low
2938_4022	8	5	CH1_CHIN	2	83	75	75	YES	704	2	chinese	low
2938_4022	4	5	CH1_CHIN	2	84	68	68	YES	447	2	chinese	low
2938_4022	4	5	CH1_CHIN	2	85	68	68	YES	464	2	chinese	low
2938_4022	3	5	CH1_CHIN	2	86	68	68	YES	511	2	chinese	low
2938_4022	7	5	CH1_CHIN	2	87	75	75	YES	510	2	chinese	low
2938_4022	3	5	CH1_CHIN	2	88	68	68	YES	697	2	chinese	low
2938_4022	9	5	CH1_CHIN	2	89	75	75	YES	695	2	chinese	low
2938_4022	4	5	CH1_CHIN	2	90	68	68	YES	527	2	chinese	low
2938_4022	4	5	CH1_CHIN	2	91	68	68	YES	455	2	chinese	low
2938_4022	6	5	CH1_CHIN	2	92	68	75	NO	407	2	chinese	low
2938_4022	2	5	CH1_CHIN	2	93	68	68	YES	415	2	chinese	low
2938_4022	9	5	CH1_CHIN	2	94	75	75	YES	567	2	chinese	low
2938_4022	6	5	CH1_CHIN	2	95	75	75	YES	495	2	chinese	low
2938_4022	6	5	CH1_CHIN	2	96	75	75	YES	392	2	chinese	low
2938_4022	8	5	CH1_CHIN	2	97	75	75	YES	431	2	chinese	low
2938_4022	8	5	CH1_CHIN	2	98	75	75	YES	432	2	chinese	low
2938_4022	2	5	CH1_CHIN	2	99	68	68	YES	543	2	chinese	low
2938_4022	1	5	CH1_CHIN	2	100	68	68	YES	425	2	chinese	low
2938_4022	9	5	CH1_CHIN	2	101	75	75	YES	447	2	chinese	low
2938_4022	1	5	CH1_CHIN	2	102	68	68	YES	568	2	chinese	low
2938_4022	9	5	CH1_CHIN	2	103	75	75	YES	519	2	chinese	low
2938_4022	6	5	CH1_CHIN	2	104	75	75	YES	343	2	chinese	low
2938_4022	6	5	CH1_CHIN	2	105	75	75	YES	527	2	chinese	low
2938_4022	3	5	CH1_CHIN	2	106	68	68	YES	511	2	chinese	low
2938_4022	2	5	CH1_CHIN	2	107	68	68	YES	528	2	chinese	low
2938_4022	1	5	CH1_CHIN	2	108	68	68	YES	463	2	chinese	low
2938_4022	9	5	CH1_CHIN	2	109	75	75	YES	733	2	chinese	low
2938_4022	9	5	CH1_CHIN	2	110	75	75	YES	680	2	chinese	low
2938_4022	6	5	CH1_CHIN	2	111	75	75	YES	704	2	chinese	low
2938_4022	3	5	CH1_CHIN	2	112	68	68	YES	383	2	chinese	low
2938_4022	9	5	CH1_CHIN	2	113	75	75	YES	472	2	chinese	low
2938_4022	9	5	CH1_CHIN	2	114	75	75	YES	479	2	chinese	low
2938_4022	2	5	CH1_CHIN	2	115	68	68	YES	577	2	chinese	low
2938_4022	4	5	CH1_CHIN	2	116	68	68	YES	943	2	chinese	low
2938_4022	3	5	CH1_CHIN	2	117	68	68	YES	431	2	chinese	low
2938_4022	9	5	CH1_CHIN	2	118	75	75	YES	576	2	chinese	low
2938_4022	3	5	CH1_CHIN	2	119	68	68	YES	448	2	chinese	low
2938_4022	2	5	CH1_CHIN	2	120	68	68	YES	423	2	chinese	low
2938_4022	6	5	CH1_CHIN	3	1	75	75	YES	447	2	chinese	low
2938_4022	1	5	CH1_CHIN	3	2	68	68	YES	366	2	chinese	low
2938_4022	1	5	CH1_CHIN	3	3	68	68	YES	525	2	chinese	low
2938_4022	4	5	CH1_CHIN	3	4	68	68	YES	535	2	chinese	low
2938_4022	9	5	CH1_CHIN	3	5	75	75	YES	543	2	chinese	low
2938_4022	7	5	CH1_CHIN	3	6	75	75	YES	639	2	chinese	low
2938_4022	3	5	CH1_CHIN	3	7	75	68	NO	526	2	chinese	low
2938_4022	8	5	CH1_CHIN	3	8	75	75	YES	512	2	chinese	low
2938_4022	2	5	CH1_CHIN	3	9	68	68	YES	431	2	chinese	low
2938_4022	3	5	CH1_CHIN	3	10	68	68	YES	456	2	chinese	low
2938_4022	4	5	CH1_CHIN	3	11	68	68	YES	487	2	chinese	low
2938_4022	1	5	CH1_CHIN	3	12	68	68	YES	503	2	chinese	low
2938_4022	1	5	CH1_CHIN	3	13	68	68	YES	559	2	chinese	low
2938_4022	6	5	CH1_CHIN	3	14	75	75	YES	551	2	chinese	low
2938_4022	6	5	CH1_CHIN	3	15	75	75	YES	807	2	chinese	low
2938_4022	8	5	CH1_CHIN	3	16	75	75	YES	488	2	chinese	low
2938_4022	2	5	CH1_CHIN	3	17	68	68	YES	374	2	chinese	low
2938_4022	6	5	CH1_CHIN	3	18	75	75	YES	456	2	chinese	low
2938_4022	7	5	CH1_CHIN	3	19	75	75	YES	519	2	chinese	low
2938_4022	3	5	CH1_CHIN	3	20	68	68	YES	680	2	chinese	low
2938_4022	1	5	CH1_CHIN	3	21	68	68	YES	680	2	chinese	low
2938_4022	2	5	CH1_CHIN	3	22	68	68	YES	527	2	chinese	low
2938_4022	6	5	CH1_CHIN	3	23	75	75	YES	663	2	chinese	low
2938_4022	6	5	CH1_CHIN	3	24	75	75	YES	401	2	chinese	low
2938_4022	2	5	CH1_CHIN	3	25	68	68	YES	439	2	chinese	low
2938_4022	7	5	CH1_CHIN	3	26	75	75	YES	513	2	chinese	low
2938_4022	8	5	CH1_CHIN	3	27	75	75	YES	583	2	chinese	low
2938_4022	6	5	CH1_CHIN	3	28	75	75	YES	495	2	chinese	low
2938_4022	1	5	CH1_CHIN	3	29	68	68	YES	335	2	chinese	low
2938_4022	2	5	CH1_CHIN	3	30	68	68	YES	358	2	chinese	low
2938_4022	8	5	CH1_CHIN	3	31	75	75	YES	471	2	chinese	low
2938_4022	9	5	CH1_CHIN	3	32	75	75	YES	480	2	chinese	low
2938_4022	3	5	CH1_CHIN	3	33	68	68	YES	335	2	chinese	low
2938_4022	8	5	CH1_CHIN	3	34	75	75	YES	511	2	chinese	low
2938_4022	9	5	CH1_CHIN	3	35	75	75	YES	479	2	chinese	low
2938_4022	9	5	CH1_CHIN	3	36	75	75	YES	424	2	chinese	low
2938_4022	8	5	CH1_CHIN	3	37	75	75	YES	407	2	chinese	low
2938_4022	1	5	CH1_CHIN	3	38	68	68	YES	343	2	chinese	low
2938_4022	8	5	CH1_CHIN	3	39	75	75	YES	551	2	chinese	low
2938_4022	3	5	CH1_CHIN	3	40	75	68	NO	335	2	chinese	low
2938_4022	6	5	CH1_CHIN	3	41	75	75	YES	520	2	chinese	low
2938_4022	8	5	CH1_CHIN	3	42	75	75	YES	359	2	chinese	low
2938_4022	3	5	CH1_CHIN	3	43	68	68	YES	472	2	chinese	low
2938_4022	1	5	CH1_CHIN	3	44	68	68	YES	344	2	chinese	low
2938_4022	7	5	CH1_CHIN	3	45	75	75	YES	440	2	chinese	low
2938_4022	8	5	CH1_CHIN	3	46	75	75	YES	478	2	chinese	low
2938_4022	6	5	CH1_CHIN	3	47	75	75	YES	448	2	chinese	low
2938_4022	7	5	CH1_CHIN	3	48	68	75	NO	343	2	chinese	low
2938_4022	9	5	CH1_CHIN	3	49	75	75	YES	472	2	chinese	low
2938_4022	3	5	CH1_CHIN	3	50	68	68	YES	399	2	chinese	low
2938_4022	2	5	CH1_CHIN	3	51	68	68	YES	464	2	chinese	low
2938_4022	7	5	CH1_CHIN	3	52	75	75	YES	430	2	chinese	low
2938_4022	7	5	CH1_CHIN	3	53	75	75	YES	368	2	chinese	low
2938_4022	4	5	CH1_CHIN	3	54	68	68	YES	591	2	chinese	low
2938_4022	7	5	CH1_CHIN	3	55	75	75	YES	479	2	chinese	low
2938_4022	8	5	CH1_CHIN	3	56	75	75	YES	487	2	chinese	low
2938_4022	3	5	CH1_CHIN	3	57	68	68	YES	415	2	chinese	low
2938_4022	4	5	CH1_CHIN	3	58	68	68	YES	559	2	chinese	low
2938_4022	9	5	CH1_CHIN	3	59	75	75	YES	511	2	chinese	low
2938_4022	4	5	CH1_CHIN	3	60	75	68	NO	416	2	chinese	low
2938_4022	7	5	CH1_CHIN	3	61	75	75	YES	455	2	chinese	low
2938_4022	6	5	CH1_CHIN	3	62	75	75	YES	400	2	chinese	low
2938_4022	1	5	CH1_CHIN	3	63	68	68	YES	414	2	chinese	low
2938_4022	4	5	CH1_CHIN	3	64	68	68	YES	576	2	chinese	low
2938_4022	2	5	CH1_CHIN	3	65	68	68	YES	661	2	chinese	low
2938_4022	4	5	CH1_CHIN	3	66	68	68	YES	580	2	chinese	low
2938_4022	6	5	CH1_CHIN	3	67	75	75	YES	441	2	chinese	low
2938_4022	2	5	CH1_CHIN	3	68	68	68	YES	398	2	chinese	low
2938_4022	4	5	CH1_CHIN	3	69	68	68	YES	472	2	chinese	low
2938_4022	7	5	CH1_CHIN	3	70	75	75	YES	535	2	chinese	low
2938_4022	3	5	CH1_CHIN	3	71	68	68	YES	519	2	chinese	low
2938_4022	1	5	CH1_CHIN	3	72	68	68	YES	399	2	chinese	low
2938_4022	6	5	CH1_CHIN	3	73	75	75	YES	519	2	chinese	low
2938_4022	6	5	CH1_CHIN	3	74	75	75	YES	439	2	chinese	low
2938_4022	9	5	CH1_CHIN	3	75	75	75	YES	502	2	chinese	low
2938_4022	9	5	CH1_CHIN	3	76	75	75	YES	512	2	chinese	low
2938_4022	3	5	CH1_CHIN	3	77	68	68	YES	647	2	chinese	low
2938_4022	6	5	CH1_CHIN	3	78	68	75	NO	630	2	chinese	low
2938_4022	4	5	CH1_CHIN	3	79	68	68	YES	473	2	chinese	low
2938_4022	2	5	CH1_CHIN	3	80	68	68	YES	414	2	chinese	low
2938_4022	1	5	CH1_CHIN	3	81	68	68	YES	542	2	chinese	low
2938_4022	7	5	CH1_CHIN	3	82	75	75	YES	535	2	chinese	low
2938_4022	2	5	CH1_CHIN	3	83	68	68	YES	695	2	chinese	low
2938_4022	6	5	CH1_CHIN	3	84	75	75	YES	375	2	chinese	low
2938_4022	7	5	CH1_CHIN	3	85	75	75	YES	479	2	chinese	low
2938_4022	7	5	CH1_CHIN	3	86	75	75	YES	439	2	chinese	low
2938_4022	8	5	CH1_CHIN	3	87	75	75	YES	431	2	chinese	low
2938_4022	4	5	CH1_CHIN	3	88	75	68	NO	416	2	chinese	low
2938_4022	2	5	CH1_CHIN	3	89	68	68	YES	423	2	chinese	low
2938_4022	3	5	CH1_CHIN	3	90	68	68	YES	456	2	chinese	low
2938_4022	1	5	CH1_CHIN	3	91	68	68	YES	446	2	chinese	low
2938_4022	6	5	CH1_CHIN	3	92	75	75	YES	503	2	chinese	low
2938_4022	6	5	CH1_CHIN	3	93	75	75	YES	511	2	chinese	low
2938_4022	4	5	CH1_CHIN	3	94	68	68	YES	455	2	chinese	low
2938_4022	1	5	CH1_CHIN	3	95	68	68	YES	360	2	chinese	low
2938_4022	2	5	CH1_CHIN	3	96	68	68	YES	351	2	chinese	low
2938_4022	8	5	CH1_CHIN	3	97	75	75	YES	453	2	chinese	low
2938_4022	7	5	CH1_CHIN	3	98	75	75	YES	486	2	chinese	low
2938_4022	4	5	CH1_CHIN	3	99	68	68	YES	512	2	chinese	low
2938_4022	6	5	CH1_CHIN	3	100	75	75	YES	519	2	chinese	low
2938_4022	8	5	CH1_CHIN	3	101	75	75	YES	480	2	chinese	low
2938_4022	7	5	CH1_CHIN	3	102	75	75	YES	446	2	chinese	low
2938_4022	4	5	CH1_CHIN	3	103	68	68	YES	383	2	chinese	low
2938_4022	3	5	CH1_CHIN	3	104	68	68	YES	392	2	chinese	low
2938_4022	9	5	CH1_CHIN	3	105	75	75	YES	535	2	chinese	low
2938_4022	1	5	CH1_CHIN	3	106	68	68	YES	383	2	chinese	low
2938_4022	4	5	CH1_CHIN	3	107	75	68	NO	423	2	chinese	low
2938_4022	1	5	CH1_CHIN	3	108	68	68	YES	471	2	chinese	low
2938_4022	3	5	CH1_CHIN	3	109	68	68	YES	367	2	chinese	low
2938_4022	9	5	CH1_CHIN	3	110	75	75	YES	359	2	chinese	low
2938_4022	4	5	CH1_CHIN	3	111	68	68	YES	600	2	chinese	low
2938_4022	4	5	CH1_CHIN	3	112	68	68	YES	575	2	chinese	low
2938_4022	6	5	CH1_CHIN	3	113	75	75	YES	502	2	chinese	low
2938_4022	3	5	CH1_CHIN	3	114	68	68	YES	350	2	chinese	low
2938_4022	7	5	CH1_CHIN	3	115	75	75	YES	576	2	chinese	low
2938_4022	1	5	CH1_CHIN	3	116	68	68	YES	327	2	chinese	low
2938_4022	7	5	CH1_CHIN	3	117	75	75	YES	431	2	chinese	low
2938_4022	4	5	CH1_CHIN	3	118	68	68	YES	607	2	chinese	low
2938_4022	9	5	CH1_CHIN	3	119	75	75	YES	471	2	chinese	low
2938_4022	9	5	CH1_CHIN	3	120	75	75	YES	807	2	chinese	low
2938_4022	3	5	CH1_CHIN	4	1	75	68	NO	447	2	chinese	low
2938_4022	2	5	CH1_CHIN	4	2	68	68	YES	350	2	chinese	low
2938_4022	3	5	CH1_CHIN	4	3	68	68	YES	417	2	chinese	low
2938_4022	7	5	CH1_CHIN	4	4	75	75	YES	710	2	chinese	low
2938_4022	6	5	CH1_CHIN	4	5	75	75	YES	614	2	chinese	low
2938_4022	2	5	CH1_CHIN	4	6	68	68	YES	480	2	chinese	low
2938_4022	1	5	CH1_CHIN	4	7	68	68	YES	399	2	chinese	low
2938_4022	3	5	CH1_CHIN	4	8	68	68	YES	384	2	chinese	low
2938_4022	4	5	CH1_CHIN	4	9	68	68	YES	471	2	chinese	low
2938_4022	8	5	CH1_CHIN	4	10	75	75	YES	415	2	chinese	low
2938_4022	1	5	CH1_CHIN	4	11	68	68	YES	358	2	chinese	low
2938_4022	9	5	CH1_CHIN	4	12	75	75	YES	528	2	chinese	low
2938_4022	6	5	CH1_CHIN	4	13	75	75	YES	407	2	chinese	low
2938_4022	7	5	CH1_CHIN	4	14	75	75	YES	447	2	chinese	low
2938_4022	9	5	CH1_CHIN	4	15	75	75	YES	478	2	chinese	low
2938_4022	2	5	CH1_CHIN	4	16	68	68	YES	384	2	chinese	low
2938_4022	8	5	CH1_CHIN	4	17	75	75	YES	582	2	chinese	low
2938_4022	9	5	CH1_CHIN	4	18	75	75	YES	406	2	chinese	low
2938_4022	7	5	CH1_CHIN	4	19	75	75	YES	358	2	chinese	low
2938_4022	3	5	CH1_CHIN	4	20	68	68	YES	456	2	chinese	low
2938_4022	8	5	CH1_CHIN	4	21	75	75	YES	406	2	chinese	low
2938_4022	6	5	CH1_CHIN	4	22	75	75	YES	439	2	chinese	low
2938_4022	6	5	CH1_CHIN	4	23	75	75	YES	447	2	chinese	low
2938_4022	2	5	CH1_CHIN	4	24	68	68	YES	447	2	chinese	low
2938_4022	1	5	CH1_CHIN	4	25	68	68	YES	551	2	chinese	low
2938_4022	1	5	CH1_CHIN	4	26	68	68	YES	358	2	chinese	low
2938_4022	7	5	CH1_CHIN	4	27	75	75	YES	407	2	chinese	low
2938_4022	7	5	CH1_CHIN	4	28	75	75	YES	502	2	chinese	low
2938_4022	3	5	CH1_CHIN	4	29	68	68	YES	456	2	chinese	low
2938_4022	2	5	CH1_CHIN	4	30	68	68	YES	350	2	chinese	low
2938_4022	7	5	CH1_CHIN	4	31	75	75	YES	464	2	chinese	low
2938_4022	4	5	CH1_CHIN	4	32	68	68	YES	438	2	chinese	low
2938_4022	6	5	CH1_CHIN	4	33	75	75	YES	464	2	chinese	low
2938_4022	6	5	CH1_CHIN	4	34	75	75	YES	471	2	chinese	low
2938_4022	9	5	CH1_CHIN	4	35	75	75	YES	511	2	chinese	low
2938_4022	4	5	CH1_CHIN	4	36	68	68	YES	471	2	chinese	low
2938_4022	8	5	CH1_CHIN	4	37	75	75	YES	454	2	chinese	low
2938_4022	8	5	CH1_CHIN	4	38	75	75	YES	390	2	chinese	low
2938_4022	8	5	CH1_CHIN	4	39	75	75	YES	462	2	chinese	low
2938_4022	1	5	CH1_CHIN	4	40	68	68	YES	510	2	chinese	low
2938_4022	9	5	CH1_CHIN	4	41	75	75	YES	510	2	chinese	low
2938_4022	3	5	CH1_CHIN	4	42	68	68	YES	496	2	chinese	low
2938_4022	2	5	CH1_CHIN	4	43	68	68	YES	407	2	chinese	low
2938_4022	7	5	CH1_CHIN	4	44	75	75	YES	455	2	chinese	low
2938_4022	9	5	CH1_CHIN	4	45	75	75	YES	535	2	chinese	low
2938_4022	7	5	CH1_CHIN	4	46	75	75	YES	415	2	chinese	low
2938_4022	4	5	CH1_CHIN	4	47	75	68	NO	343	2	chinese	low
2938_4022	8	5	CH1_CHIN	4	48	75	75	YES	350	2	chinese	low
2938_4022	8	5	CH1_CHIN	4	49	75	75	YES	430	2	chinese	low
2938_4022	4	5	CH1_CHIN	4	50	68	68	YES	503	2	chinese	low
2938_4022	9	5	CH1_CHIN	4	51	75	75	YES	534	2	chinese	low
2938_4022	1	5	CH1_CHIN	4	52	68	68	YES	542	2	chinese	low
2938_4022	6	5	CH1_CHIN	4	53	75	75	YES	608	2	chinese	low
2938_4022	8	5	CH1_CHIN	4	54	75	75	YES	423	2	chinese	low
2938_4022	8	5	CH1_CHIN	4	55	75	75	YES	567	2	chinese	low
2938_4022	8	5	CH1_CHIN	4	56	75	75	YES	383	2	chinese	low
2938_4022	1	5	CH1_CHIN	4	57	68	68	YES	383	2	chinese	low
2938_4022	4	5	CH1_CHIN	4	58	68	68	YES	575	2	chinese	low
2938_4022	6	5	CH1_CHIN	4	59	75	75	YES	446	2	chinese	low
2938_4022	3	5	CH1_CHIN	4	60	68	68	YES	487	2	chinese	low
2938_4022	9	5	CH1_CHIN	4	61	75	75	YES	542	2	chinese	low
2938_4022	7	5	CH1_CHIN	4	62	75	75	YES	574	2	chinese	low
2938_4022	7	5	CH1_CHIN	4	63	75	75	YES	606	2	chinese	low
2938_4022	8	5	CH1_CHIN	4	64	75	75	YES	902	2	chinese	low
2938_4022	6	5	CH1_CHIN	4	65	75	75	YES	743	2	chinese	low
2938_4022	7	5	CH1_CHIN	4	66	75	75	YES	605	2	chinese	low
2938_4022	2	5	CH1_CHIN	4	67	68	68	YES	448	2	chinese	low
2938_4022	4	5	CH1_CHIN	4	68	75	68	NO	478	2	chinese	low
2938_4022	2	5	CH1_CHIN	4	69	68	68	YES	352	2	chinese	low
2938_4022	1	5	CH1_CHIN	4	70	68	68	YES	358	2	chinese	low
2938_4022	2	5	CH1_CHIN	4	71	68	68	YES	367	2	chinese	low
2938_4022	6	5	CH1_CHIN	4	72	75	75	YES	430	2	chinese	low
2938_4022	9	5	CH1_CHIN	4	73	75	75	YES	582	2	chinese	low
2938_4022	2	5	CH1_CHIN	4	74	68	68	YES	462	2	chinese	low
2938_4022	8	5	CH1_CHIN	4	75	75	75	YES	789	2	chinese	low
2938_4022	4	5	CH1_CHIN	4	76	68	68	YES	632	2	chinese	low
2938_4022	7	5	CH1_CHIN	4	77	75	75	YES	590	2	chinese	low
2938_4022	2	5	CH1_CHIN	4	78	68	68	YES	439	2	chinese	low
2938_4022	3	5	CH1_CHIN	4	79	68	68	YES	663	2	chinese	low
2938_4022	4	5	CH1_CHIN	4	80	68	68	YES	671	2	chinese	low
2938_4022	2	5	CH1_CHIN	4	81	68	68	YES	398	2	chinese	low
2938_4022	3	5	CH1_CHIN	4	82	68	68	YES	390	2	chinese	low
2938_4022	4	5	CH1_CHIN	4	83	68	68	YES	542	2	chinese	low
2938_4022	4	5	CH1_CHIN	4	84	68	68	YES	520	2	chinese	low
2938_4022	8	5	CH1_CHIN	4	85	75	75	YES	566	2	chinese	low
2938_4022	9	5	CH1_CHIN	4	86	75	75	YES	535	2	chinese	low
2938_4022	1	5	CH1_CHIN	4	87	68	68	YES	590	2	chinese	low
2938_4022	4	5	CH1_CHIN	4	88	68	68	YES	559	2	chinese	low
2938_4022	9	5	CH1_CHIN	4	89	75	75	YES	871	2	chinese	low
2938_4022	3	5	CH1_CHIN	4	90	68	68	YES	399	2	chinese	low
2938_4022	4	5	CH1_CHIN	4	91	68	68	YES	559	2	chinese	low
2938_4022	2	5	CH1_CHIN	4	92	68	68	YES	407	2	chinese	low
2938_4022	6	5	CH1_CHIN	4	93	75	75	YES	726	2	chinese	low
2938_4022	2	5	CH1_CHIN	4	94	68	68	YES	446	2	chinese	low
2938_4022	9	5	CH1_CHIN	4	95	75	75	YES	472	2	chinese	low
2938_4022	6	5	CH1_CHIN	4	96	75	75	YES	1190	2	chinese	low
2938_4022	8	5	CH1_CHIN	4	97	75	75	YES	727	2	chinese	low
2938_4022	8	5	CH1_CHIN	4	98	75	75	YES	878	2	chinese	low
2938_4022	8	5	CH1_CHIN	4	99	75	75	YES	630	2	chinese	low
2938_4022	4	5	CH1_CHIN	4	100	68	68	YES	495	2	chinese	low
2938_4022	8	5	CH1_CHIN	4	101	75	75	YES	503	2	chinese	low
2938_4022	7	5	CH1_CHIN	4	102	75	75	YES	638	2	chinese	low
2938_4022	4	5	CH1_CHIN	4	103	68	68	YES	359	2	chinese	low
2938_4022	2	5	CH1_CHIN	4	104	68	68	YES	598	2	chinese	low
2938_4022	1	5	CH1_CHIN	4	105	68	68	YES	510	2	chinese	low
2938_4022	2	5	CH1_CHIN	4	106	68	68	YES	566	2	chinese	low
2938_4022	1	5	CH1_CHIN	4	107	68	68	YES	414	2	chinese	low
2938_4022	3	5	CH1_CHIN	4	108	68	68	YES	520	2	chinese	low
2938_4022	4	5	CH1_CHIN	4	109	68	68	YES	814	2	chinese	low
2938_4022	2	5	CH1_CHIN	4	110	68	68	YES	406	2	chinese	low
2938_4022	8	5	CH1_CHIN	4	111	75	75	YES	720	2	chinese	low
2938_4022	1	5	CH1_CHIN	4	112	68	68	YES	734	2	chinese	low
2938_4022	9	5	CH1_CHIN	4	113	75	75	YES	662	2	chinese	low
2938_4022	9	5	CH1_CHIN	4	114	75	75	YES	702	2	chinese	low
2938_4022	2	5	CH1_CHIN	4	115	68	68	YES	519	2	chinese	low
2938_4022	1	5	CH1_CHIN	4	116	68	68	YES	398	2	chinese	low
2938_4022	2	5	CH1_CHIN	4	117	68	68	YES	374	2	chinese	low
2938_4022	8	5	CH1_CHIN	4	118	75	75	YES	534	2	chinese	low
2938_4022	7	5	CH1_CHIN	4	119	75	75	YES	549	2	chinese	low
2938_4022	3	5	CH1_CHIN	4	120	75	68	NO	487	2	chinese	low
2938_4022	1	5	CH1_CHIN	5	1	68	68	YES	606	2	chinese	low
2938_4022	7	5	CH1_CHIN	5	2	75	75	YES	598	2	chinese	low
2938_4022	6	5	CH1_CHIN	5	3	75	75	YES	390	2	chinese	low
2938_4022	3	5	CH1_CHIN	5	4	68	68	YES	422	2	chinese	low
2938_4022	2	5	CH1_CHIN	5	5	68	68	YES	398	2	chinese	low
2938_4022	9	5	CH1_CHIN	5	6	75	75	YES	455	2	chinese	low
2938_4022	8	5	CH1_CHIN	5	7	75	75	YES	502	2	chinese	low
2938_4022	2	5	CH1_CHIN	5	8	68	68	YES	375	2	chinese	low
2938_4022	7	5	CH1_CHIN	5	9	75	75	YES	464	2	chinese	low
2938_4022	6	5	CH1_CHIN	5	10	75	75	YES	647	2	chinese	low
2938_4022	2	5	CH1_CHIN	5	11	68	68	YES	464	2	chinese	low
2938_4022	9	5	CH1_CHIN	5	12	75	75	YES	816	2	chinese	low
2938_4022	6	5	CH1_CHIN	5	13	75	75	YES	663	2	chinese	low
2938_4022	6	5	CH1_CHIN	5	14	75	75	YES	430	2	chinese	low
2938_4022	3	5	CH1_CHIN	5	15	75	68	NO	686	2	chinese	low
2938_4022	7	5	CH1_CHIN	5	16	75	75	YES	582	2	chinese	low
2938_4022	8	5	CH1_CHIN	5	17	75	75	YES	606	2	chinese	low
2938_4022	7	5	CH1_CHIN	5	18	75	75	YES	686	2	chinese	low
2938_4022	9	5	CH1_CHIN	5	19	75	75	YES	357	2	chinese	low
2938_4022	6	5	CH1_CHIN	5	20	75	75	YES	376	2	chinese	low
2938_4022	9	5	CH1_CHIN	5	21	75	75	YES	323	2	chinese	low
2938_4022	1	5	CH1_CHIN	5	22	68	68	YES	335	2	chinese	low
2938_4022	3	5	CH1_CHIN	5	23	68	68	YES	399	2	chinese	low
2938_4022	8	5	CH1_CHIN	5	24	75	75	YES	583	2	chinese	low
2938_4022	2	5	CH1_CHIN	5	25	68	68	YES	366	2	chinese	low
2938_4022	4	5	CH1_CHIN	5	26	68	68	YES	558	2	chinese	low
2938_4022	1	5	CH1_CHIN	5	27	68	68	YES	422	2	chinese	low
2938_4022	6	5	CH1_CHIN	5	28	75	75	YES	392	2	chinese	low
2938_4022	2	5	CH1_CHIN	5	29	68	68	YES	390	2	chinese	low
2938_4022	4	5	CH1_CHIN	5	30	68	68	YES	408	2	chinese	low
2938_4022	9	5	CH1_CHIN	5	31	75	75	YES	445	2	chinese	low
2938_4022	8	5	CH1_CHIN	5	32	75	75	YES	336	2	chinese	low
2938_4022	1	5	CH1_CHIN	5	33	68	68	YES	423	2	chinese	low
2938_4022	2	5	CH1_CHIN	5	34	75	68	NO	399	2	chinese	low
2938_4022	7	5	CH1_CHIN	5	35	75	75	YES	501	2	chinese	low
2938_4022	1	5	CH1_CHIN	5	36	68	68	YES	383	2	chinese	low
2938_4022	1	5	CH1_CHIN	5	37	68	68	YES	430	2	chinese	low
2938_4022	9	5	CH1_CHIN	5	38	75	75	YES	535	2	chinese	low
2938_4022	3	5	CH1_CHIN	5	39	68	68	YES	486	2	chinese	low
2938_4022	8	5	CH1_CHIN	5	40	75	75	YES	486	2	chinese	low
2938_4022	3	5	CH1_CHIN	5	41	68	68	YES	590	2	chinese	low
2938_4022	6	5	CH1_CHIN	5	42	75	75	YES	598	2	chinese	low
2938_4022	3	5	CH1_CHIN	5	43	68	68	YES	462	2	chinese	low
2938_4022	9	5	CH1_CHIN	5	44	75	75	YES	550	2	chinese	low
2938_4022	1	5	CH1_CHIN	5	45	68	68	YES	391	2	chinese	low
2938_4022	4	5	CH1_CHIN	5	46	68	68	YES	647	2	chinese	low
2938_4022	2	5	CH1_CHIN	5	47	68	68	YES	350	2	chinese	low
2938_4022	3	5	CH1_CHIN	5	48	68	68	YES	368	2	chinese	low
2938_4022	6	5	CH1_CHIN	5	49	75	75	YES	470	2	chinese	low
2938_4022	1	5	CH1_CHIN	5	50	68	68	YES	478	2	chinese	low
2938_4022	7	5	CH1_CHIN	5	51	75	75	YES	598	2	chinese	low
2938_4022	9	5	CH1_CHIN	5	52	75	75	YES	518	2	chinese	low
2938_4022	1	5	CH1_CHIN	5	53	68	68	YES	518	2	chinese	low
2938_4022	4	5	CH1_CHIN	5	54	68	68	YES	534	2	chinese	low
2938_4022	3	5	CH1_CHIN	5	55	68	68	YES	815	2	chinese	low
2938_4022	8	5	CH1_CHIN	5	56	75	75	YES	630	2	chinese	low
2938_4022	6	5	CH1_CHIN	5	57	75	75	YES	464	2	chinese	low
2938_4022	6	5	CH1_CHIN	5	58	75	75	YES	485	2	chinese	low
2938_4022	2	5	CH1_CHIN	5	59	68	68	YES	590	2	chinese	low
2938_4022	2	5	CH1_CHIN	5	60	68	68	YES	462	2	chinese	low
2938_4022	2	5	CH1_CHIN	5	61	68	68	YES	382	2	chinese	low
2938_4022	7	5	CH1_CHIN	5	62	75	75	YES	478	2	chinese	low
2938_4022	4	5	CH1_CHIN	5	63	68	68	YES	1053	2	chinese	low
2938_4022	9	5	CH1_CHIN	5	64	68	75	NO	832	2	chinese	low
2938_4022	3	5	CH1_CHIN	5	65	68	68	YES	471	2	chinese	low
2938_4022	9	5	CH1_CHIN	5	66	75	75	YES	414	2	chinese	low
2938_4022	3	5	CH1_CHIN	5	67	68	68	YES	424	2	chinese	low
2938_4022	3	5	CH1_CHIN	5	68	68	68	YES	438	2	chinese	low
2938_4022	9	5	CH1_CHIN	5	69	75	75	YES	455	2	chinese	low
2938_4022	8	5	CH1_CHIN	5	70	75	75	YES	503	2	chinese	low
2938_4022	9	5	CH1_CHIN	5	71	75	75	YES	493	2	chinese	low
2938_4022	8	5	CH1_CHIN	5	72	75	75	YES	477	2	chinese	low
2938_4022	8	5	CH1_CHIN	5	73	75	75	YES	654	2	chinese	low
2938_4022	1	5	CH1_CHIN	5	74	68	68	YES	447	2	chinese	low
2938_4022	7	5	CH1_CHIN	5	75	75	75	YES	1030	2	chinese	low
2938_4022	8	5	CH1_CHIN	5	76	75	75	YES	638	2	chinese	low
2938_4022	1	5	CH1_CHIN	5	77	68	68	YES	1174	2	chinese	low
2938_4022	8	5	CH1_CHIN	5	78	75	75	YES	478	2	chinese	low
2938_4022	1	5	CH1_CHIN	5	79	68	68	YES	415	2	chinese	low
2938_4022	9	5	CH1_CHIN	5	80	75	75	YES	462	2	chinese	low
2938_4022	1	5	CH1_CHIN	5	81	68	68	YES	423	2	chinese	low
2938_4022	1	5	CH1_CHIN	5	82	68	68	YES	366	2	chinese	low
2938_4022	8	5	CH1_CHIN	5	83	75	75	YES	399	2	chinese	low
2938_4022	4	5	CH1_CHIN	5	84	68	68	YES	494	2	chinese	low
2938_4022	8	5	CH1_CHIN	5	85	75	75	YES	415	2	chinese	low
2938_4022	7	5	CH1_CHIN	5	86	75	75	YES	390	2	chinese	low
2938_4022	1	5	CH1_CHIN	5	87	68	68	YES	351	2	chinese	low
2938_4022	1	5	CH1_CHIN	5	88	68	68	YES	382	2	chinese	low
2938_4022	4	5	CH1_CHIN	5	89	75	68	NO	302	2	chinese	low
2938_4022	7	5	CH1_CHIN	5	90	75	75	YES	462	2	chinese	low
2938_4022	3	5	CH1_CHIN	5	91	68	68	YES	517	2	chinese	low
2938_4022	9	5	CH1_CHIN	5	92	75	75	YES	486	2	chinese	low
2938_4022	2	5	CH1_CHIN	5	93	68	68	YES	487	2	chinese	low
2938_4022	1	5	CH1_CHIN	5	94	68	68	YES	462	2	chinese	low
2938_4022	6	5	CH1_CHIN	5	95	75	75	YES	374	2	chinese	low
2938_4022	9	5	CH1_CHIN	5	96	75	75	YES	494	2	chinese	low
2938_4022	3	5	CH1_CHIN	5	97	68	68	YES	533	2	chinese	low
2938_4022	4	5	CH1_CHIN	5	98	68	68	YES	624	2	chinese	low
2938_4022	8	5	CH1_CHIN	5	99	75	75	YES	494	2	chinese	low
2938_4022	3	5	CH1_CHIN	5	100	68	68	YES	446	2	chinese	low
2938_4022	7	5	CH1_CHIN	5	101	75	75	YES	670	2	chinese	low
2938_4022	8	5	CH1_CHIN	5	102	75	75	YES	381	2	chinese	low
2938_4022	7	5	CH1_CHIN	5	103	75	75	YES	447	2	chinese	low
2938_4022	8	5	CH1_CHIN	5	104	75	75	YES	454	2	chinese	low
2938_4022	9	5	CH1_CHIN	5	105	75	75	YES	438	2	chinese	low
2938_4022	4	5	CH1_CHIN	5	106	75	68	NO	422	2	chinese	low
2938_4022	9	5	CH1_CHIN	5	107	75	75	YES	533	2	chinese	low
2938_4022	7	5	CH1_CHIN	5	108	75	75	YES	398	2	chinese	low
2938_4022	8	5	CH1_CHIN	5	109	75	75	YES	710	2	chinese	low
2938_4022	3	5	CH1_CHIN	5	110	68	68	YES	568	2	chinese	low
2938_4022	2	5	CH1_CHIN	5	111	68	68	YES	462	2	chinese	low
2938_4022	7	5	CH1_CHIN	5	112	68	75	NO	423	2	chinese	low
2938_4022	7	5	CH1_CHIN	5	113	75	75	YES	429	2	chinese	low
2938_4022	1	5	CH1_CHIN	5	114	68	68	YES	399	2	chinese	low
2938_4022	9	5	CH1_CHIN	5	115	75	75	YES	453	2	chinese	low
2938_4022	1	5	CH1_CHIN	5	116	68	68	YES	407	2	chinese	low
2938_4022	3	5	CH1_CHIN	5	117	68	68	YES	694	2	chinese	low
2938_4022	2	5	CH1_CHIN	5	118	68	68	YES	670	2	chinese	low
2938_4022	1	5	CH1_CHIN	5	119	68	68	YES	318	2	chinese	low
2938_4022	3	5	CH1_CHIN	5	120	68	68	YES	510	2	chinese	low
3596_4019	1	5	CH1_CHIN	1	1	68	68	YES	1014	2	chinese	low
3596_4019	4	5	CH1_CHIN	1	2	68	68	YES	407	2	chinese	low
3596_4019	7	5	CH1_CHIN	1	3	75	75	YES	527	2	chinese	low
3596_4019	3	5	CH1_CHIN	1	4	68	68	YES	480	2	chinese	low
3596_4019	6	5	CH1_CHIN	1	5	75	75	YES	488	2	chinese	low
3596_4019	8	5	CH1_CHIN	1	6	75	75	YES	632	2	chinese	low
3596_4019	2	5	CH1_CHIN	1	7	68	68	YES	432	2	chinese	low
3596_4019	9	5	CH1_CHIN	1	8	75	75	YES	896	2	chinese	low
3596_4019	3	5	CH1_CHIN	2	1	68	68	YES	881	2	chinese	low
3596_4019	7	5	CH1_CHIN	2	2	75	75	YES	400	2	chinese	low
3596_4019	4	5	CH1_CHIN	2	3	68	68	YES	447	2	chinese	low
3596_4019	1	5	CH1_CHIN	2	4	68	68	YES	399	2	chinese	low
3596_4019	8	5	CH1_CHIN	2	5	75	75	YES	399	2	chinese	low
3596_4019	4	5	CH1_CHIN	2	6	68	68	YES	431	2	chinese	low
3596_4019	7	5	CH1_CHIN	2	7	75	75	YES	432	2	chinese	low
3596_4019	9	5	CH1_CHIN	2	8	75	75	YES	376	2	chinese	low
3596_4019	7	5	CH1_CHIN	2	9	75	75	YES	590	2	chinese	low
3596_4019	3	5	CH1_CHIN	2	10	68	68	YES	497	2	chinese	low
3596_4019	8	5	CH1_CHIN	2	11	75	75	YES	463	2	chinese	low
3596_4019	4	5	CH1_CHIN	2	12	68	68	YES	519	2	chinese	low
3596_4019	6	5	CH1_CHIN	2	13	75	75	YES	422	2	chinese	low
3596_4019	2	5	CH1_CHIN	2	14	68	68	YES	438	2	chinese	low
3596_4019	3	5	CH1_CHIN	2	15	68	68	YES	479	2	chinese	low
3596_4019	8	5	CH1_CHIN	2	16	75	75	YES	431	2	chinese	low
3596_4019	8	5	CH1_CHIN	2	17	75	75	YES	367	2	chinese	low
3596_4019	6	5	CH1_CHIN	2	18	75	75	YES	320	2	chinese	low
3596_4019	1	5	CH1_CHIN	2	19	68	68	YES	496	2	chinese	low
3596_4019	8	5	CH1_CHIN	2	20	75	75	YES	424	2	chinese	low
3596_4019	7	5	CH1_CHIN	2	21	75	75	YES	408	2	chinese	low
3596_4019	9	5	CH1_CHIN	2	22	75	75	YES	392	2	chinese	low
3596_4019	9	5	CH1_CHIN	2	23	75	75	YES	336	2	chinese	low
3596_4019	6	5	CH1_CHIN	2	24	75	75	YES	463	2	chinese	low
3596_4019	9	5	CH1_CHIN	2	25	75	75	YES	391	2	chinese	low
3596_4019	4	5	CH1_CHIN	2	26	68	68	YES	463	2	chinese	low
3596_4019	1	5	CH1_CHIN	2	27	68	68	YES	431	2	chinese	low
3596_4019	1	5	CH1_CHIN	2	28	68	68	YES	456	2	chinese	low
3596_4019	6	5	CH1_CHIN	2	29	75	75	YES	383	2	chinese	low
3596_4019	8	5	CH1_CHIN	2	30	75	75	YES	384	2	chinese	low
3596_4019	8	5	CH1_CHIN	2	31	75	75	YES	352	2	chinese	low
3596_4019	4	5	CH1_CHIN	2	32	75	68	NO	351	2	chinese	low
3596_4019	6	5	CH1_CHIN	2	33	75	75	YES	552	2	chinese	low
3596_4019	4	5	CH1_CHIN	2	34	68	68	YES	392	2	chinese	low
3596_4019	8	5	CH1_CHIN	2	35	75	75	YES	409	2	chinese	low
3596_4019	3	5	CH1_CHIN	2	36	68	68	YES	424	2	chinese	low
3596_4019	4	5	CH1_CHIN	2	37	68	68	YES	839	2	chinese	low
3596_4019	3	5	CH1_CHIN	2	38	68	68	YES	375	2	chinese	low
3596_4019	8	5	CH1_CHIN	2	39	75	75	YES	401	2	chinese	low
3596_4019	6	5	CH1_CHIN	2	40	75	75	YES	832	2	chinese	low
3596_4019	8	5	CH1_CHIN	2	41	75	75	YES	431	2	chinese	low
3596_4019	1	5	CH1_CHIN	2	42	68	68	YES	352	2	chinese	low
3596_4019	6	5	CH1_CHIN	2	43	75	75	YES	440	2	chinese	low
3596_4019	4	5	CH1_CHIN	2	44	68	68	YES	688	2	chinese	low
3596_4019	4	5	CH1_CHIN	2	45	68	68	YES	464	2	chinese	low
3596_4019	7	5	CH1_CHIN	2	46	75	75	YES	623	2	chinese	low
3596_4019	8	5	CH1_CHIN	2	47	75	75	YES	463	2	chinese	low
3596_4019	9	5	CH1_CHIN	2	48	75	75	YES	327	2	chinese	low
3596_4019	9	5	CH1_CHIN	2	49	75	75	YES	359	2	chinese	low
3596_4019	6	5	CH1_CHIN	2	50	68	75	NO	399	2	chinese	low
3596_4019	4	5	CH1_CHIN	2	51	68	68	YES	647	2	chinese	low
3596_4019	8	5	CH1_CHIN	2	52	75	75	YES	367	2	chinese	low
3596_4019	3	5	CH1_CHIN	2	53	68	68	YES	472	2	chinese	low
3596_4019	9	5	CH1_CHIN	2	54	75	75	YES	358	2	chinese	low
3596_4019	7	5	CH1_CHIN	2	55	75	75	YES	520	2	chinese	low
3596_4019	3	5	CH1_CHIN	2	56	68	68	YES	488	2	chinese	low
3596_4019	3	5	CH1_CHIN	2	57	68	68	YES	513	2	chinese	low
3596_4019	1	5	CH1_CHIN	2	58	68	68	YES	423	2	chinese	low
3596_4019	2	5	CH1_CHIN	2	59	68	68	YES	400	2	chinese	low
3596_4019	6	5	CH1_CHIN	2	60	75	75	YES	391	2	chinese	low
3596_4019	2	5	CH1_CHIN	2	61	68	68	YES	383	2	chinese	low
3596_4019	3	5	CH1_CHIN	2	62	68	68	YES	543	2	chinese	low
3596_4019	2	5	CH1_CHIN	2	63	68	68	YES	392	2	chinese	low
3596_4019	1	5	CH1_CHIN	2	64	68	68	YES	343	2	chinese	low
3596_4019	2	5	CH1_CHIN	2	65	68	68	YES	437	2	chinese	low
3596_4019	2	5	CH1_CHIN	2	66	68	68	YES	343	2	chinese	low
3596_4019	3	5	CH1_CHIN	2	67	68	68	YES	352	2	chinese	low
3596_4019	1	5	CH1_CHIN	2	68	68	68	YES	343	2	chinese	low
3596_4019	2	5	CH1_CHIN	2	69	68	68	YES	305	2	chinese	low
3596_4019	7	5	CH1_CHIN	2	70	75	75	YES	471	2	chinese	low
3596_4019	1	5	CH1_CHIN	2	71	68	68	YES	392	2	chinese	low
3596_4019	1	5	CH1_CHIN	2	72	68	68	YES	351	2	chinese	low
3596_4019	3	5	CH1_CHIN	2	73	68	68	YES	551	2	chinese	low
3596_4019	6	5	CH1_CHIN	2	74	68	75	NO	399	2	chinese	low
3596_4019	6	5	CH1_CHIN	2	75	75	75	YES	504	2	chinese	low
3596_4019	3	5	CH1_CHIN	2	76	68	68	YES	440	2	chinese	low
3596_4019	8	5	CH1_CHIN	2	77	75	75	YES	488	2	chinese	low
3596_4019	9	5	CH1_CHIN	2	78	75	75	YES	439	2	chinese	low
3596_4019	8	5	CH1_CHIN	2	79	75	75	YES	424	2	chinese	low
3596_4019	9	5	CH1_CHIN	2	80	75	75	YES	360	2	chinese	low
3596_4019	1	5	CH1_CHIN	2	81	68	68	YES	400	2	chinese	low
3596_4019	1	5	CH1_CHIN	2	82	68	68	YES	335	2	chinese	low
3596_4019	2	5	CH1_CHIN	2	83	68	68	YES	416	2	chinese	low
3596_4019	9	5	CH1_CHIN	2	84	75	75	YES	439	2	chinese	low
3596_4019	4	5	CH1_CHIN	2	85	68	68	YES	919	2	chinese	low
3596_4019	7	5	CH1_CHIN	2	86	75	75	YES	536	2	chinese	low
3596_4019	9	5	CH1_CHIN	2	87	75	75	YES	343	2	chinese	low
3596_4019	7	5	CH1_CHIN	2	88	75	75	YES	335	2	chinese	low
3596_4019	2	5	CH1_CHIN	2	89	68	68	YES	471	2	chinese	low
3596_4019	8	5	CH1_CHIN	2	90	75	75	YES	425	2	chinese	low
3596_4019	7	5	CH1_CHIN	2	91	75	75	YES	456	2	chinese	low
3596_4019	2	5	CH1_CHIN	2	92	68	68	YES	456	2	chinese	low
3596_4019	7	5	CH1_CHIN	2	93	75	75	YES	368	2	chinese	low
3596_4019	4	5	CH1_CHIN	2	94	68	68	YES	495	2	chinese	low
3596_4019	4	5	CH1_CHIN	2	95	68	68	YES	631	2	chinese	low
3596_4019	8	5	CH1_CHIN	2	96	75	75	YES	359	2	chinese	low
3596_4019	6	5	CH1_CHIN	2	97	75	75	YES	767	2	chinese	low
3596_4019	4	5	CH1_CHIN	2	98	68	68	YES	687	2	chinese	low
3596_4019	1	5	CH1_CHIN	2	99	68	68	YES	551	2	chinese	low
3596_4019	4	5	CH1_CHIN	2	100	68	68	YES	576	2	chinese	low
3596_4019	7	5	CH1_CHIN	2	101	75	75	YES	383	2	chinese	low
3596_4019	6	5	CH1_CHIN	2	102	75	75	YES	473	2	chinese	low
3596_4019	3	5	CH1_CHIN	2	103	68	68	YES	606	2	chinese	low
3596_4019	2	5	CH1_CHIN	2	104	68	68	YES	495	2	chinese	low
3596_4019	3	5	CH1_CHIN	2	105	68	68	YES	793	2	chinese	low
3596_4019	8	5	CH1_CHIN	2	106	75	75	YES	423	2	chinese	low
3596_4019	2	5	CH1_CHIN	2	107	68	68	YES	471	2	chinese	low
3596_4019	7	5	CH1_CHIN	2	108	75	75	YES	512	2	chinese	low
3596_4019	3	5	CH1_CHIN	2	109	68	68	YES	599	2	chinese	low
3596_4019	1	5	CH1_CHIN	2	110	68	68	YES	400	2	chinese	low
3596_4019	9	5	CH1_CHIN	2	111	75	75	YES	455	2	chinese	low
3596_4019	8	5	CH1_CHIN	2	112	75	75	YES	584	2	chinese	low
3596_4019	4	5	CH1_CHIN	2	113	68	68	YES	431	2	chinese	low
3596_4019	7	5	CH1_CHIN	2	114	75	75	YES	601	2	chinese	low
3596_4019	7	5	CH1_CHIN	2	115	75	75	YES	384	2	chinese	low
3596_4019	2	5	CH1_CHIN	2	116	68	68	YES	454	2	chinese	low
3596_4019	7	5	CH1_CHIN	2	117	75	75	YES	375	2	chinese	low
3596_4019	8	5	CH1_CHIN	2	118	75	75	YES	431	2	chinese	low
3596_4019	7	5	CH1_CHIN	2	119	75	75	YES	328	2	chinese	low
3596_4019	9	5	CH1_CHIN	2	120	75	75	YES	319	2	chinese	low
3596_4019	6	5	CH1_CHIN	3	1	75	75	YES	558	2	chinese	low
3596_4019	6	5	CH1_CHIN	3	2	75	75	YES	447	2	chinese	low
3596_4019	4	5	CH1_CHIN	3	3	68	68	YES	423	2	chinese	low
3596_4019	1	5	CH1_CHIN	3	4	68	68	YES	343	2	chinese	low
3596_4019	9	5	CH1_CHIN	3	5	75	75	YES	415	2	chinese	low
3596_4019	1	5	CH1_CHIN	3	6	75	68	NO	367	2	chinese	low
3596_4019	1	5	CH1_CHIN	3	7	68	68	YES	607	2	chinese	low
3596_4019	7	5	CH1_CHIN	3	8	75	75	YES	487	2	chinese	low
3596_4019	9	5	CH1_CHIN	3	9	75	75	YES	383	2	chinese	low
3596_4019	3	5	CH1_CHIN	3	10	68	68	YES	401	2	chinese	low
3596_4019	7	5	CH1_CHIN	3	11	75	75	YES	527	2	chinese	low
3596_4019	9	5	CH1_CHIN	3	12	75	75	YES	319	2	chinese	low
3596_4019	6	5	CH1_CHIN	3	13	75	75	YES	463	2	chinese	low
3596_4019	3	5	CH1_CHIN	3	14	68	68	YES	399	2	chinese	low
3596_4019	2	5	CH1_CHIN	3	15	68	68	YES	360	2	chinese	low
3596_4019	3	5	CH1_CHIN	3	16	68	68	YES	535	2	chinese	low
3596_4019	1	5	CH1_CHIN	3	17	68	68	YES	377	2	chinese	low
3596_4019	3	5	CH1_CHIN	3	18	68	68	YES	383	2	chinese	low
3596_4019	8	5	CH1_CHIN	3	19	75	75	YES	446	2	chinese	low
3596_4019	8	5	CH1_CHIN	3	20	75	75	YES	391	2	chinese	low
3596_4019	6	5	CH1_CHIN	3	21	75	75	YES	591	2	chinese	low
3596_4019	7	5	CH1_CHIN	3	22	75	75	YES	351	2	chinese	low
3596_4019	9	5	CH1_CHIN	3	23	75	75	YES	336	2	chinese	low
3596_4019	1	5	CH1_CHIN	3	24	68	68	YES	399	2	chinese	low
3596_4019	9	5	CH1_CHIN	3	25	75	75	YES	383	2	chinese	low
3596_4019	9	5	CH1_CHIN	3	26	75	75	YES	479	2	chinese	low
3596_4019	4	5	CH1_CHIN	3	27	68	68	YES	464	2	chinese	low
3596_4019	3	5	CH1_CHIN	3	28	68	68	YES	487	2	chinese	low
3596_4019	4	5	CH1_CHIN	3	29	68	68	YES	441	2	chinese	low
3596_4019	8	5	CH1_CHIN	3	30	75	75	YES	424	2	chinese	low
3596_4019	4	5	CH1_CHIN	3	31	68	68	YES	448	2	chinese	low
3596_4019	2	5	CH1_CHIN	3	32	68	68	YES	391	2	chinese	low
3596_4019	8	5	CH1_CHIN	3	33	75	75	YES	400	2	chinese	low
3596_4019	7	5	CH1_CHIN	3	34	75	75	YES	511	2	chinese	low
3596_4019	2	5	CH1_CHIN	3	35	68	68	YES	535	2	chinese	low
3596_4019	6	5	CH1_CHIN	3	36	75	75	YES	398	2	chinese	low
3596_4019	3	5	CH1_CHIN	3	37	68	68	YES	657	2	chinese	low
3596_4019	9	5	CH1_CHIN	3	38	75	75	YES	440	2	chinese	low
3596_4019	6	5	CH1_CHIN	3	39	75	75	YES	560	2	chinese	low
3596_4019	2	5	CH1_CHIN	3	40	68	68	YES	455	2	chinese	low
3596_4019	1	5	CH1_CHIN	3	41	68	68	YES	383	2	chinese	low
3596_4019	7	5	CH1_CHIN	3	42	75	75	YES	503	2	chinese	low
3596_4019	4	5	CH1_CHIN	3	43	68	68	YES	407	2	chinese	low
3596_4019	7	5	CH1_CHIN	3	44	75	75	YES	456	2	chinese	low
3596_4019	2	5	CH1_CHIN	3	45	68	68	YES	431	2	chinese	low
3596_4019	7	5	CH1_CHIN	3	46	75	75	YES	424	2	chinese	low
3596_4019	6	5	CH1_CHIN	3	47	75	75	YES	486	2	chinese	low
3596_4019	1	5	CH1_CHIN	3	48	68	68	YES	457	2	chinese	low
3596_4019	2	5	CH1_CHIN	3	49	68	68	YES	417	2	chinese	low
3596_4019	8	5	CH1_CHIN	3	50	75	75	YES	385	2	chinese	low
3596_4019	6	5	CH1_CHIN	3	51	75	75	YES	433	2	chinese	low
3596_4019	1	5	CH1_CHIN	3	52	68	68	YES	496	2	chinese	low
3596_4019	7	5	CH1_CHIN	3	53	75	75	YES	393	2	chinese	low
3596_4019	4	5	CH1_CHIN	3	54	68	68	YES	433	2	chinese	low
3596_4019	3	5	CH1_CHIN	3	55	68	68	YES	473	2	chinese	low
3596_4019	6	5	CH1_CHIN	3	56	75	75	YES	336	2	chinese	low
3596_4019	4	5	CH1_CHIN	3	57	68	68	YES	1314	2	chinese	low
3596_4019	9	5	CH1_CHIN	3	58	75	75	YES	438	2	chinese	low
3596_4019	7	5	CH1_CHIN	3	59	75	75	YES	378	2	chinese	low
3596_4019	9	5	CH1_CHIN	3	60	75	75	YES	416	2	chinese	low
3596_4019	6	5	CH1_CHIN	3	61	75	75	YES	575	2	chinese	low
3596_4019	3	5	CH1_CHIN	3	62	68	68	YES	423	2	chinese	low
3596_4019	3	5	CH1_CHIN	3	63	68	68	YES	495	2	chinese	low
3596_4019	1	5	CH1_CHIN	3	64	68	68	YES	503	2	chinese	low
3596_4019	8	5	CH1_CHIN	3	65	75	75	YES	447	2	chinese	low
3596_4019	2	5	CH1_CHIN	3	66	68	68	YES	423	2	chinese	low
3596_4019	2	5	CH1_CHIN	3	67	68	68	YES	407	2	chinese	low
3596_4019	4	5	CH1_CHIN	3	68	68	68	YES	703	2	chinese	low
3596_4019	4	5	CH1_CHIN	3	69	68	68	YES	391	2	chinese	low
3596_4019	3	5	CH1_CHIN	3	70	68	68	YES	439	2	chinese	low
3596_4019	6	5	CH1_CHIN	3	71	75	75	YES	375	2	chinese	low
3596_4019	1	5	CH1_CHIN	3	72	68	68	YES	471	2	chinese	low
3596_4019	7	5	CH1_CHIN	3	73	75	75	YES	518	2	chinese	low
3596_4019	4	5	CH1_CHIN	3	74	68	68	YES	359	2	chinese	low
3596_4019	6	5	CH1_CHIN	3	75	75	75	YES	374	2	chinese	low
3596_4019	2	5	CH1_CHIN	3	76	68	68	YES	559	2	chinese	low
3596_4019	9	5	CH1_CHIN	3	77	75	75	YES	535	2	chinese	low
3596_4019	4	5	CH1_CHIN	3	78	68	68	YES	599	2	chinese	low
3596_4019	1	5	CH1_CHIN	3	79	68	68	YES	431	2	chinese	low
3596_4019	9	5	CH1_CHIN	3	80	75	75	YES	351	2	chinese	low
3596_4019	3	5	CH1_CHIN	3	81	68	68	YES	383	2	chinese	low
3596_4019	9	5	CH1_CHIN	3	82	75	75	YES	368	2	chinese	low
3596_4019	7	5	CH1_CHIN	3	83	75	75	YES	671	2	chinese	low
3596_4019	3	5	CH1_CHIN	3	84	68	68	YES	478	2	chinese	low
3596_4019	2	5	CH1_CHIN	3	85	68	68	YES	471	2	chinese	low
3596_4019	4	5	CH1_CHIN	3	86	68	68	YES	663	2	chinese	low
3596_4019	2	5	CH1_CHIN	3	87	68	68	YES	423	2	chinese	low
3596_4019	6	5	CH1_CHIN	3	88	75	75	YES	415	2	chinese	low
3596_4019	1	5	CH1_CHIN	3	89	68	68	YES	415	2	chinese	low
3596_4019	8	5	CH1_CHIN	3	90	75	75	YES	551	2	chinese	low
3596_4019	2	5	CH1_CHIN	3	91	68	68	YES	383	2	chinese	low
3596_4019	9	5	CH1_CHIN	3	92	75	75	YES	431	2	chinese	low
3596_4019	7	5	CH1_CHIN	3	93	75	75	YES	863	2	chinese	low
3596_4019	6	5	CH1_CHIN	3	94	75	75	YES	455	2	chinese	low
3596_4019	7	5	CH1_CHIN	3	95	75	75	YES	392	2	chinese	low
3596_4019	4	5	CH1_CHIN	3	96	75	68	NO	350	2	chinese	low
3596_4019	2	5	CH1_CHIN	3	97	68	68	YES	806	2	chinese	low
3596_4019	9	5	CH1_CHIN	3	98	75	75	YES	366	2	chinese	low
3596_4019	1	5	CH1_CHIN	3	99	68	68	YES	551	2	chinese	low
3596_4019	4	5	CH1_CHIN	3	100	75	68	NO	439	2	chinese	low
3596_4019	6	5	CH1_CHIN	3	101	75	75	YES	414	2	chinese	low
3596_4019	2	5	CH1_CHIN	3	102	68	68	YES	463	2	chinese	low
3596_4019	1	5	CH1_CHIN	3	103	68	68	YES	399	2	chinese	low
3596_4019	9	5	CH1_CHIN	3	104	75	75	YES	383	2	chinese	low
3596_4019	2	5	CH1_CHIN	3	105	68	68	YES	351	2	chinese	low
3596_4019	9	5	CH1_CHIN	3	106	75	75	YES	391	2	chinese	low
3596_4019	9	5	CH1_CHIN	3	107	75	75	YES	415	2	chinese	low
3596_4019	9	5	CH1_CHIN	3	108	75	75	YES	318	2	chinese	low
3596_4019	2	5	CH1_CHIN	3	109	75	68	NO	334	2	chinese	low
3596_4019	1	5	CH1_CHIN	3	110	68	68	YES	542	2	chinese	low
3596_4019	3	5	CH1_CHIN	3	111	68	68	YES	383	2	chinese	low
3596_4019	1	5	CH1_CHIN	3	112	68	68	YES	358	2	chinese	low
3596_4019	9	5	CH1_CHIN	3	113	75	75	YES	423	2	chinese	low
3596_4019	8	5	CH1_CHIN	3	114	75	75	YES	535	2	chinese	low
3596_4019	3	5	CH1_CHIN	3	115	68	68	YES	416	2	chinese	low
3596_4019	2	5	CH1_CHIN	3	116	68	68	YES	423	2	chinese	low
3596_4019	8	5	CH1_CHIN	3	117	75	75	YES	392	2	chinese	low
3596_4019	8	5	CH1_CHIN	3	118	75	75	YES	455	2	chinese	low
3596_4019	6	5	CH1_CHIN	3	119	75	75	YES	495	2	chinese	low
3596_4019	1	5	CH1_CHIN	3	120	68	68	YES	558	2	chinese	low
3596_4019	9	5	CH1_CHIN	4	1	75	75	YES	527	2	chinese	low
3596_4019	8	5	CH1_CHIN	4	2	75	75	YES	1078	2	chinese	low
3596_4019	9	5	CH1_CHIN	4	3	75	75	YES	423	2	chinese	low
3596_4019	1	5	CH1_CHIN	4	4	68	68	YES	567	2	chinese	low
3596_4019	1	5	CH1_CHIN	4	5	68	68	YES	391	2	chinese	low
3596_4019	4	5	CH1_CHIN	4	6	68	68	YES	687	2	chinese	low
3596_4019	2	5	CH1_CHIN	4	7	68	68	YES	423	2	chinese	low
3596_4019	7	5	CH1_CHIN	4	8	75	75	YES	478	2	chinese	low
3596_4019	8	5	CH1_CHIN	4	9	75	75	YES	502	2	chinese	low
3596_4019	3	5	CH1_CHIN	4	10	68	68	YES	424	2	chinese	low
3596_4019	6	5	CH1_CHIN	4	11	75	75	YES	487	2	chinese	low
3596_4019	7	5	CH1_CHIN	4	12	75	75	YES	399	2	chinese	low
3596_4019	4	5	CH1_CHIN	4	13	68	68	YES	486	2	chinese	low
3596_4019	1	5	CH1_CHIN	4	14	68	68	YES	439	2	chinese	low
3596_4019	1	5	CH1_CHIN	4	15	68	68	YES	398	2	chinese	low
3596_4019	4	5	CH1_CHIN	4	16	68	68	YES	639	2	chinese	low
3596_4019	8	5	CH1_CHIN	4	17	75	75	YES	560	2	chinese	low
3596_4019	1	5	CH1_CHIN	4	18	68	68	YES	632	2	chinese	low
3596_4019	6	5	CH1_CHIN	4	19	75	75	YES	480	2	chinese	low
3596_4019	8	5	CH1_CHIN	4	20	75	75	YES	432	2	chinese	low
3596_4019	4	5	CH1_CHIN	4	21	68	68	YES	569	2	chinese	low
3596_4019	9	5	CH1_CHIN	4	22	75	75	YES	361	2	chinese	low
3596_4019	9	5	CH1_CHIN	4	23	75	75	YES	369	2	chinese	low
3596_4019	7	5	CH1_CHIN	4	24	75	75	YES	433	2	chinese	low
3596_4019	2	5	CH1_CHIN	4	25	68	68	YES	401	2	chinese	low
3596_4019	1	5	CH1_CHIN	4	26	68	68	YES	401	2	chinese	low
3596_4019	2	5	CH1_CHIN	4	27	68	68	YES	385	2	chinese	low
3596_4019	4	5	CH1_CHIN	4	28	68	68	YES	465	2	chinese	low
3596_4019	8	5	CH1_CHIN	4	29	75	75	YES	361	2	chinese	low
3596_4019	1	5	CH1_CHIN	4	30	75	68	NO	384	2	chinese	low
3596_4019	7	5	CH1_CHIN	4	31	75	75	YES	408	2	chinese	low
3596_4019	8	5	CH1_CHIN	4	32	75	75	YES	376	2	chinese	low
3596_4019	1	5	CH1_CHIN	4	33	68	68	YES	425	2	chinese	low
3596_4019	7	5	CH1_CHIN	4	34	75	75	YES	413	2	chinese	low
3596_4019	6	5	CH1_CHIN	4	35	75	75	YES	505	2	chinese	low
3596_4019	2	5	CH1_CHIN	4	36	68	68	YES	409	2	chinese	low
3596_4019	8	5	CH1_CHIN	4	37	75	75	YES	425	2	chinese	low
3596_4019	1	5	CH1_CHIN	4	38	68	68	YES	425	2	chinese	low
3596_4019	2	5	CH1_CHIN	4	39	68	68	YES	473	2	chinese	low
3596_4019	4	5	CH1_CHIN	4	40	68	68	YES	569	2	chinese	low
3596_4019	9	5	CH1_CHIN	4	41	75	75	YES	423	2	chinese	low
3596_4019	8	5	CH1_CHIN	4	42	75	75	YES	458	2	chinese	low
3596_4019	3	5	CH1_CHIN	4	43	68	68	YES	551	2	chinese	low
3596_4019	3	5	CH1_CHIN	4	44	68	68	YES	385	2	chinese	low
3596_4019	1	5	CH1_CHIN	4	45	68	68	YES	424	2	chinese	low
3596_4019	8	5	CH1_CHIN	4	46	75	75	YES	448	2	chinese	low
3596_4019	2	5	CH1_CHIN	4	47	68	68	YES	462	2	chinese	low
3596_4019	7	5	CH1_CHIN	4	48	75	75	YES	399	2	chinese	low
3596_4019	6	5	CH1_CHIN	4	49	75	75	YES	430	2	chinese	low
3596_4019	6	5	CH1_CHIN	4	50	75	75	YES	375	2	chinese	low
3596_4019	2	5	CH1_CHIN	4	51	68	68	YES	430	2	chinese	low
3596_4019	3	5	CH1_CHIN	4	52	68	68	YES	471	2	chinese	low
3596_4019	6	5	CH1_CHIN	4	53	75	75	YES	463	2	chinese	low
3596_4019	8	5	CH1_CHIN	4	54	75	75	YES	439	2	chinese	low
3596_4019	6	5	CH1_CHIN	4	55	75	75	YES	423	2	chinese	low
3596_4019	3	5	CH1_CHIN	4	56	68	68	YES	479	2	chinese	low
3596_4019	4	5	CH1_CHIN	4	57	68	68	YES	535	2	chinese	low
3596_4019	7	5	CH1_CHIN	4	58	75	75	YES	477	2	chinese	low
3596_4019	7	5	CH1_CHIN	4	59	75	75	YES	392	2	chinese	low
3596_4019	6	5	CH1_CHIN	4	60	75	75	YES	654	2	chinese	low
3596_4019	3	5	CH1_CHIN	4	61	68	68	YES	495	2	chinese	low
3596_4019	6	5	CH1_CHIN	4	62	75	75	YES	374	2	chinese	low
3596_4019	8	5	CH1_CHIN	4	63	75	75	YES	423	2	chinese	low
3596_4019	9	5	CH1_CHIN	4	64	75	75	YES	391	2	chinese	low
3596_4019	2	5	CH1_CHIN	4	65	68	68	YES	472	2	chinese	low
3596_4019	3	5	CH1_CHIN	4	66	68	68	YES	422	2	chinese	low
3596_4019	2	5	CH1_CHIN	4	67	68	68	YES	423	2	chinese	low
3596_4019	8	5	CH1_CHIN	4	68	75	75	YES	495	2	chinese	low
3596_4019	2	5	CH1_CHIN	4	69	68	68	YES	454	2	chinese	low
3596_4019	4	5	CH1_CHIN	4	70	75	68	NO	350	2	chinese	low
